time,seconds_elapsed,z,y,x
1691674088430198800,0.03019873046875,-0.21769407189786433,-0.0776730222672224,-0.2572510062605142
1691674088440244000,0.040243896484375,-0.22396014655530452,-0.018176000420749187,-0.23581673469617961
1691674088450290000,0.0502900390625,-0.17896774314045905,-0.03817921626865864,-0.199216165921092
1691674088460335000,0.060335205078125,-0.1757201395213604,-0.16324907274395226,-0.02292838257960975
1691674088470380000,0.070380126953125,-0.14354396305978298,-0.3219526110127568,0.09932349386550486
1691674088480426000,0.080426025390625,-0.055717211046814916,-0.38974604430049653,0.042870077498629686
1691674088490471000,0.090470947265625,0.11158873587250709,-0.443380896115303,-0.06807371153384446
1691674088500516900,0.100516845703125,0.5470762483894824,-0.4270692282617092,-0.29748620521090924
1691674088510562000,0.11056201171875,0.8110211993306875,-0.20313772327899932,-0.5667869110316038
1691674088520607000,0.12060693359375,0.7826157735794782,-0.03158843970149755,-0.7249577306631952
1691674088530652000,0.13065185546875,1.080520861789584,0.5468374711975454,-0.5985792027421295
1691674088540697900,0.14069775390625,0.8374731529265642,1.0243237582713365,-0.434144427344948
1691674088550742800,0.15074267578125,0.3174970929086208,1.1806506305366753,-0.4823739129848778
1691674088560788000,0.1607880859375,0.38272973579764363,1.2805273013055323,-0.3184308666273951
1691674088570834000,0.170833984375,0.7455050633251666,1.0453928497850895,-0.195505767095834
1691674088580878800,0.18087890625,-0.20139935517907143,0.4698065462261438,0.18820450417175888
1691674088590925000,0.190925048828125,-6.6555901078552,0.09569441664814948,0.971648545268923
1691674088600969700,0.2009697265625,-5.432110389417409,-0.4535334568172693,-0.40942485049962996
1691674088611015000,0.211014892578125,1.9300503632128239,-0.43182372931241986,-1.2612535687759518
1691674088621060900,0.221060791015625,3.0674358525186776,0.4848515551447868,-0.7305202601611613
1691674088631105800,0.231105712890625,1.0564449896752834,0.18538403992354868,-1.6667998242765665
1691674088641151000,0.24115087890625,-0.7359867088735104,-1.6372329535305499,-1.9897800247713922
1691674088651196000,0.25119580078125,0.40389527342319487,-2.685396437072754,-0.2599719556570053
1691674088661242000,0.2612421875,0.5304004233986139,-2.8953739432439205,2.3054025559797884
1691674088671286800,0.271286865234375,0.4233306262552738,-2.13100226688534,3.259720757871866
1691674088681332700,0.281332763671875,-0.092892218708992,-0.8711001127183436,2.1362012968331574
1691674088691378000,0.2913779296875,-0.7793003654211759,-0.42490182109475133,-0.011674363441765308
1691674088701422800,0.3014228515625,-0.9767916072458028,-0.4302425976008177,-1.4627902865990996
1691674088711469000,0.311468994140625,-0.8164087375879288,-0.32959903411269187,-1.2321078460514545
1691674088721514000,0.321513916015625,-0.16730010170042514,-0.298876563590765,-0.3649532560884952
1691674088731559000,0.331558837890625,0.05313303977251053,-0.3486822125062346,0.36145050866454836
1691674088741604900,0.34160498046875,-0.14593231950104235,-0.2737102658912539,0.46423254548609255
1691674088751649800,0.35164990234375,-0.6949450889110564,-0.09254881209880113,0.45861996630132196
1691674088761695000,0.361695068359375,-0.8008230459213256,-0.046782793962955475,0.06635434039533138
1691674088771741000,0.371740966796875,-0.5017161807060242,0.1047603511571884,-1.0512363151162862
1691674088781785900,0.381785888671875,-0.15354045641720293,0.4394096543967724,-3.1264281397134064
1691674088791831000,0.3918310546875,0.42916181662678715,0.3325239816486835,-4.2922734153062105
1691674088801876700,0.401876708984375,1.5669617319524287,-0.8452028703957796,-3.972716467258334
1691674088811922000,0.411921875,2.3488246413379907,-2.9341531712323428,-2.0737433793544766
1691674088821966800,0.421966796875,1.9201362874418495,-4.260653995944559,1.3988883077919483
1691674088832012800,0.4320126953125,1.5091688836753367,-2.8582480354204773,3.2282267184555526
1691674088842058000,0.44205810546875,1.66647599914968,-0.7547969155445694,1.3125666996449232
1691674088852103000,0.45210302734375,1.2426298245877028,-0.4988678055375814,-1.4459925887942313
1691674088862149000,0.462149169921875,0.7162327916115522,-0.674919661231339,-2.3017115925073623
1691674088872193800,0.47219384765625,0.714506113949418,-0.5178001772835851,-1.741807426726818
1691674088882239000,0.482239013671875,0.33100188664793967,-0.18172873228639363,-1.1540578071653842
1691674088892285000,0.492284912109375,0.06905366248190403,0.17509587014317513,-0.6555868919909
1691674088902329900,0.502329833984375,0.21533611059486865,0.6368263696804642,-0.9139496588855981
1691674088912375000,0.512375,-0.01850479398369789,1.0321104666247962,-1.6717174069344996
1691674088922421000,0.5224208984375,0.17579671188890933,1.1630775644451379,-2.377630464583635
1691674088932465700,0.532465576171875,1.0438818607002496,0.7396484462514519,-2.9270237577438354
1691674088942510800,0.5425107421875,1.6481868937432764,-0.5657920547753572,-2.8095974017590284
1691674088952556800,0.552556884765625,1.5111591807097196,-2.3844465743392704,-1.5109189422130584
1691674088962602000,0.56260205078125,0.708178079971671,-2.42337953158468,-0.21004677201509475
1691674088972647000,0.57264697265625,0.6575736818939447,-0.5253916553258896,-0.4273573975533247
1691674088982692900,0.58269287109375,1.1419231327354908,0.38657793565839527,-1.6431249341785907
1691674088992738000,0.592738037109375,1.305190617918968,0.13667290824651718,-2.885065607458353
1691674089002782700,0.60278271484375,1.2412474303185939,-0.16496932066529987,-3.2915108576253056
1691674089012829000,0.612828857421875,1.3097113102138043,-0.12637100220173597,-2.7418615438774228
1691674089022873900,0.622873779296875,1.3520312795490026,0.191511875154078,-2.5172668988108633
1691674089032919000,0.6329189453125,0.9863999780684709,0.28822482119500636,-2.60748317630887
1691674089042965000,0.642965087890625,0.6524988628476858,0.017586217834055423,-2.719383170087635
1691674089053010000,0.653010009765625,-0.8396534195750951,-0.09368979882746935,-3.1253382986500857
1691674089063054800,0.663054931640625,-1.2062182025134562,-0.058983811627328395,-2.802292631703615
1691674089073100800,0.673100830078125,-1.0703484273433685,-0.17744272553026674,-1.790530541102588
1691674089083146000,0.68314599609375,-1.2407283748805522,-0.0025149054303765296,-1.253588148714602
1691674089093191000,0.69319091796875,1.5433423714339731,0.06522533636540175,-2.2427172594860196
1691674089103236900,0.70323681640625,2.3102076181739566,0.5797203346237539,-3.3386621926397084
1691674089113282000,0.713281982421875,2.1008757164299485,0.7281313191980123,-4.261413874401152
1691674089123327000,0.723326904296875,2.6588708337187765,0.32944851972609757,-4.746705574528873
1691674089133372700,0.73337255859375,3.3726083013832566,0.19223200612217187,-4.638265365815163
1691674089143417900,0.74341796875,4.232179888871312,0.5539902655616402,-4.671701186949014
1691674089153462800,0.753462890625,4.880135847592354,1.2677607587128876,-5.158437240666151
1691674089163509000,0.763509033203125,4.64824783064723,1.3433107974767684,-4.393643539503216
1691674089173554000,0.773553955078125,5.21955484945178,0.6045610536307097,-2.8674218142181633
1691674089183599000,0.78359912109375,5.489713852602243,-0.01268383274525404,-2.7081775932013987
1691674089193645000,0.79364501953125,5.52705661804676,-0.24995120464116333,-2.2434280381038785
1691674089203689700,0.803689697265625,5.240756627434492,1.5763453541085124,0.41934824208822097
1691674089213735000,0.81373486328125,4.361591866204142,3.4979379778385162,2.9389056264564393
1691674089223780900,0.82378076171875,4.44986636198461,2.6982056497633455,1.6492624140202998
1691674089233826000,0.833825927734375,5.140365577402711,2.094101984511316,-0.6467030360504984
1691674089243871000,0.84387109375,6.304135800287127,2.598727038401365,-2.670069396342337
1691674089253917000,0.8539169921875,7.333123458716273,3.1409178528368473,-2.544355981266498
1691674089263961900,0.8639619140625,7.586157139542698,3.90471640548259,-0.1684934031382203
1691674089274006800,0.8740068359375,7.0614026130765675,4.652241576458514,2.3907857142329214
1691674089284052700,0.884052734375,5.547519560360908,4.573824165564775,3.1310029002830384
1691674089294098000,0.894097900390625,3.9106408270955084,4.328944565099477,2.245549560302496
1691674089304144000,0.904143798828125,3.2947914867311714,4.92874468793869,1.7642834624290464
1691674089314189000,0.91418896484375,3.383780852782726,5.836320135617256,0.6685662005513906
1691674089324234000,0.92423388671875,2.4382605821132657,6.513636628857254,-0.43691082331836223
1691674089334279000,0.93427880859375,0.1262023676365614,7.4620514519244425,-1.27765963691473
1691674089344324900,0.944324951171875,-1.0678548569619655,7.19455845311284,-3.050719110995531
1691674089354369800,0.954369873046875,-2.6387027826979756,7.410290285027027,-4.066826829585433
1691674089364416000,0.964416015625,-4.818936990264058,7.676225533002614,-2.5459295141935345
1691674089374461000,0.9744609375,-3.695043142955005,7.509534503111243,-1.5910276671946049
1691674089384506000,0.984506103515625,-2.950217586326599,7.569944255888462,-2.4912948376864192
1691674089394552000,0.994552001953125,-4.274899086657166,7.311244804385304,-4.0551515893608325
1691674089404596700,1.0045966796875,-5.059758839771151,6.74104545456171,-5.739814987108111
1691674089414642000,1.014641845703125,-5.318134466147423,6.257767432343959,-7.08429950453937
1691674089424687900,1.02468798828125,-5.340346297955513,6.445159304958581,-8.282403958702087
1691674089434732800,1.03473291015625,-5.183645331680775,7.346422500750422,-10.387716196274758
1691674089444778000,1.044778076171875,-5.362421351641416,7.534961789834499,-11.624197435104847
1691674089454824000,1.054823974609375,-5.110004925930499,6.909050489661097,-11.5324871196568
1691674089464868900,1.064868896484375,-4.421168090766668,6.455527554237842,-12.506440873128176
1691674089474913800,1.074913818359375,-3.3771725405588744,6.278589855620265,-13.802932636284828
1691674089484959700,1.084959716796875,-2.0200655651807784,6.015794659236073,-15.358141971123217
1691674089495005000,1.0950048828125,-1.4444284082174301,5.247786087679863,-16.286619921576975
1691674089505049600,1.105049560546875,-1.3981494721233845,4.326600632321834,-16.7103445155859
1691674089515095800,1.115095703125,-1.916632955496013,3.6408436429947613,-17.086331206864116
1691674089525140700,1.125140625,-2.628696352468431,2.5512527550429103,-16.377470989847183
1691674089535186000,1.13518603515625,-2.788019483940303,1.5372399629056452,-15.906073959559201
1691674089545232000,1.14523193359375,-3.2778979273363946,0.7147007597386836,-15.915460212063788
1691674089555276800,1.15527685546875,-4.476701761940121,-0.24382570749819277,-15.673567518454789
1691674089565321700,1.16532177734375,-5.4776259399235245,-1.4442074589431284,-14.82178234705925
1691674089575367700,1.17536767578125,-6.0533273942947385,-2.6637539295852184,-13.833501962071656
1691674089585412900,1.185412841796875,-6.231167010188102,-3.495248592624068,-13.594761010491847
1691674089595457800,1.195457763671875,-5.805379053908586,-3.665646660339832,-13.385928874963522
1691674089605503700,1.205503662109375,-5.012829330813885,-3.801062846523523,-12.731466603088379
1691674089615549000,1.215548828125,-3.804634567530453,-4.055246866428852,-12.256124050045013
1691674089625593600,1.225593505859375,-2.4987749643087387,-4.117527089253068,-11.232886917966603
1691674089635639600,1.2356396484375,-1.2072083825945854,-3.9144975025236604,-10.416099410194159
1691674089645684700,1.245684814453125,-0.02835954078286886,-4.012525330555439,-9.603348610591889
1691674089655729700,1.255729736328125,1.09179336643219,-4.38341732904315,-8.790562739676236
1691674089665775900,1.26577587890625,1.922817489349842,-4.480605783641338,-8.196129696828127
1691674089675820800,1.27582080078125,2.358008210877329,-4.313341922298074,-7.604038248670101
1691674089685866800,1.28586669921875,2.487987028312683,-4.175215308111905,-6.919309433346986
1691674089695912000,1.295911865234375,2.7547861996412277,-3.8718817651122808,-6.350958926260471
1691674089705956600,1.30595654296875,2.818124991607666,-3.3061282887816428,-5.8172518625319
1691674089716002800,1.3160029296875,2.525598673826456,-2.6263176406383515,-5.148717810684442
1691674089726047700,1.3260478515625,1.9272925889372825,-1.8897125076055525,-4.76020481531024
1691674089736093000,1.336093017578125,1.4365595745384692,-0.9943734411656856,-4.559239175373316
1691674089746139000,1.346138916015625,0.9156908765297382,-0.24424188708364963,-4.219381489835679
1691674089756183800,1.356183837890625,0.3475355997543782,0.528984711381793,-4.169171644033491
1691674089766228700,1.366228759765625,-0.12982121572084723,1.3411743699699639,-4.245234308494627
1691674089776274700,1.376274658203125,-0.5947533608436584,1.9501018021166323,-4.374849407184124
1691674089786319600,1.386319580078125,-0.914551278040558,2.657313082882762,-4.794064414814114
1691674089796364800,1.39636474609375,-1.1250807190060614,3.383189901152253,-5.306474423491954
1691674089806410800,1.40641064453125,-1.200737725275755,3.639288230246305,-5.661105023008584
1691674089816456000,1.4164560546875,-1.39487980280295,4.088728280270099,-6.0635810772836205
1691674089826500900,1.4265009765625,-1.7346236527025698,4.626209601840377,-6.057357088202238
1691674089836546600,1.436546630859375,-2.053454478432983,4.75516974375248,-5.63642007908523
1691674089846591700,1.446591796875,-2.1730735221564768,4.709945869669318,-5.160528659987449
1691674089856636700,1.45663671875,-2.367437718001753,4.7921004212647675,-4.829148003154993
1691674089866683000,1.466682861328125,-2.7047181003972884,4.69990787525773,-4.3400078109055755
1691674089876727800,1.476727783203125,-3.072571169580519,4.602292135158181,-3.829161398282647
1691674089886773000,1.48677294921875,-3.4116315672606228,4.6998891705572605,-3.4737019467264414
1691674089896819000,1.49681884765625,-3.7931677093595266,4.637680843925476,-3.0761732857257127
1691674089906863600,1.506863525390625,-4.1034672919794914,4.499575272527337,-2.58193313998878
1691674089916908800,1.51690869140625,-4.385059543292225,4.436043003815413,-2.051393015858531
1691674089926954800,1.526954833984375,-4.671690957815945,4.350792824292182,-1.4602899942159653
1691674089936999700,1.536999755859375,-4.9219350079238415,4.220276100587845,-0.9646125091522931
1691674089947044900,1.547044921875,-5.059098914557695,4.207752719101309,-0.5448837067812681
1691674089957090800,1.5570908203125,-5.147324310499429,4.359384711548686,-0.2284790852844715
1691674089967135700,1.5671357421875,-5.353961566331982,4.434385884258151,0.16096037728488444
1691674089977180700,1.5771806640625,-5.60467820238769,4.533314460521936,0.6739017163604497
1691674089987226600,1.5872265625,-5.809819666704535,4.711707910905778,1.135279456937313
1691674089997271800,1.597271728515625,-5.9241971565127365,4.96552222071588,1.3832967709064483
1691674090007316700,1.607316650390625,-6.00869505636394,5.097799524351954,1.6031529892742633
1691674090017363000,1.617363037109375,-6.127987790742516,5.123309813183546,1.8826772021412848
1691674090027408000,1.627407958984375,-6.264709798827767,5.159571213132143,2.18612238882184
1691674090037452800,1.637452880859375,-6.415198466458916,5.152558119499683,2.5293647483617065
1691674090047498800,1.647498779296875,-6.429442095866799,5.218877973103523,2.812854942250252
1691674090057543700,1.657543701171875,-6.437875577691197,5.335958292129636,3.000660071840882
1691674090067589600,1.667589599609375,-6.505636862275004,5.399048077771067,3.1640286793112753
1691674090077634800,1.677634765625,-6.474172048953175,5.652487416788936,3.231379629528522
1691674090087679700,1.6876796875,-6.519212967684864,6.014992695203423,3.371602339211106
1691674090097726000,1.697725830078125,-6.641948535993695,6.201284497621655,3.6736172008275982
1691674090107770600,1.7077705078125,-6.561500203794241,6.233261352118849,3.892535846084356
1691674090117815800,1.71781591796875,-6.371615345320105,6.20659020281434,4.091369150167703
1691674090127861800,1.72786181640625,-6.19070114428699,6.2700751252532,4.307926911512017
1691674090137906700,1.73790673828125,-6.247423148462176,6.326153570827842,4.473342514640093
1691674090147951900,1.747951904296875,-6.217280523654818,6.362817121836542,4.709739533442258
1691674090157997800,1.757997802734375,-6.064940675199032,6.357509078556299,4.9097266837358475
1691674090168042800,1.768042724609375,-6.021729309982061,6.27770313591361,5.021672562482952
1691674090178087700,1.778087646484375,-5.853887941011786,6.237665140035748,5.016318926495313
1691674090188133600,1.788133544921875,-5.747523077267408,6.155073950588703,5.103699103784561
1691674090198178800,1.7981787109375,-5.6033384782165285,6.088286479473114,5.203220969766378
1691674090208223700,1.8082236328125,-5.436929772397876,6.019862931588292,5.287500842952728
1691674090218270000,1.81827001953125,-5.199127562972903,6.015849019771814,5.292400889953971
1691674090228315000,1.82831494140625,-4.9527112544596195,6.211625274372101,5.2014264875650404
1691674090238359800,1.83835986328125,-4.812765023630857,6.440080978780984,5.238803155279159
1691674090248405800,1.84840576171875,-4.618014020425081,6.53828182529211,5.133940512791276
1691674090258450700,1.85845068359375,-4.382455206012725,6.5264698069453235,5.170440982192755
1691674090268496000,1.868495849609375,-4.2656200939193365,6.425637442886829,5.332556374731659
1691674090278541800,1.878541748046875,-4.139259028589725,6.23137743806839,5.344926026961207
1691674090288586800,1.888586669921875,-3.868939866441488,6.1284238440722225,5.194404041582346
1691674090298631700,1.898631591796875,-3.70108505346775,6.059318743664026,5.017292739963531
1691674090308677600,1.908677734375,-3.7160903148978948,5.9420478705018756,4.711315404456854
1691674090318722800,1.918722900390625,-3.584716682103276,5.70950928069353,4.379615598672628
1691674090328767700,1.928767822265625,-3.3749887667790053,5.65007217234075,4.0402971345782275
1691674090338813700,1.938813720703125,-3.3638106624215838,5.63929300417304,3.7326398831605907
1691674090348859000,1.94885888671875,-3.323575390405953,5.706128406083583,3.285135769635439
1691674090358903800,1.95890380859375,-3.1966043764844536,5.897752217179536,2.58142928211987
1691674090368950000,1.968949951171875,-3.227902016545832,6.109955874967575,1.8271692499309777
1691674090378994700,1.97899462890625,-3.33429464507997,6.329948871457576,1.1132061568170786
1691674090389039900,1.989039794921875,-3.272242093531787,6.689028851598501,0.3051239335477352
1691674090399085800,1.9990859375,-3.19823343899101,7.365702955281734,-0.7750953149467706
1691674090409130800,2.009130859375,-3.2521114519119263,8.155505425494908,-1.8344225820600986
1691674090419176000,2.019176025390625,-3.4427012437850233,8.71563813933432,-2.764856927278638
1691674090429222000,2.029221923828125,-3.629253450705111,8.999782413217424,-3.684512688851356
1691674090439266600,2.0392666015625,-3.745703947395086,9.184543937328458,-4.5891140891551965
1691674090449312800,2.049312744140625,-3.909486980885267,9.203106598979234,-5.5116901220887895
1691674090459357700,2.059357666015625,-4.1363375881850715,9.013846009883284,-6.48669484591782
1691674090469403000,2.06940283203125,-4.320353262364864,8.714636268815397,-7.363958741962909
1691674090479448800,2.07944873046875,-4.540813876366615,8.222405124813317,-8.13133076918125
1691674090489497900,2.089497802734375,-4.652413133633137,7.536696650803089,-8.639428759878873
1691674090499543000,2.09954296875,-4.729346443448961,6.902036226984858,-8.99181187272966
1691674090509589000,2.109589111328125,-4.762206218260526,6.23495763464272,-9.197116418653726
1691674090519633700,2.119633544921875,-4.725068327738344,5.50370613759756,-9.336570482051371
1691674090529678800,2.129678955078125,-4.66445486908257,4.749993217897415,-9.500073529556394
1691674090539724800,2.139724853515625,-4.584176048231124,4.018839336007833,-9.588937807923555
1691674090549770000,2.14977001953125,-4.440254776291549,3.2795395570635795,-9.5571684586972
1691674090559815000,2.15981494140625,-4.282814974348247,2.5635820752620697,-9.525436518871784
1691674090569860900,2.16986083984375,-4.09610231616944,1.902041243302822,-9.305469241344928
1691674090579905800,2.17990576171875,-3.938421106685698,1.378175774630904,-9.001075375637411
1691674090589950700,2.18995068359375,-3.926182095098495,0.9975514866799116,-8.727814314818382
1691674090599997000,2.199996826171875,-3.8484149648070334,0.43654315904974933,-8.23220872594714
1691674090610041900,2.210041748046875,-3.6659658092916008,-0.10533493617475032,-7.705128971403837
1691674090620086800,2.220086669921875,-3.4889293264746666,-0.4155962326109409,-7.323556588947772
1691674090630133000,2.230133056640625,-3.4248329941391944,-0.7446978385955095,-6.947661083084345
1691674090640178000,2.240177978515625,-3.4223639736771583,-1.1347364361017942,-6.61347881283462
1691674090650222800,2.250222900390625,-3.2952631958961485,-1.4547189160853624,-6.350059931594133
1691674090660268800,2.260268798828125,-3.2145033135294914,-1.836838995552063,-6.003384674996138
1691674090670313700,2.270313720703125,-3.0576480334758758,-2.244714278522134,-5.863361287277937
1691674090680359000,2.28035888671875,-2.900772879678011,-2.5590192973911763,-5.907642327553034
1691674090690404900,2.29040478515625,-2.764975585222244,-2.8808751700311896,-5.896387358567118
1691674090700450000,2.300449951171875,-2.5277076288044453,-3.152962510895729,-5.968464168262481
1691674090710494700,2.31049462890625,-2.437907530891895,-3.6493735709309574,-5.991701835986971
1691674090720540700,2.320540771484375,-2.502276250427961,-4.038362367123365,-6.050138242864608
1691674090730585900,2.3305859375,-2.33792535392195,-4.2675563226789235,-6.245389012286067
1691674090740631800,2.3406318359375,-1.9982956319212912,-4.560955331641435,-6.505358045333623
1691674090750677000,2.350677001953125,-1.6392928086698055,-4.787016834390164,-6.856660377210378
1691674090760722000,2.360721923828125,-1.4291209489703178,-4.815462007629871,-7.139643790620565
1691674090770768000,2.370767822265625,-1.340513129582256,-4.555310019230842,-7.580341731262207
1691674090780812800,2.380812744140625,-1.2536708585619927,-4.1880297814995044,-8.133278396117687
1691674090790857700,2.390857666015625,-1.0558873557925224,-3.8889281769812105,-8.635693080481886
1691674090800903700,2.400903564453125,-0.8128257645346224,-3.5808050616174936,-9.107936498466133
1691674090810948900,2.410948974609375,-0.5227264547046274,-3.3078111273020503,-9.534092119014263
1691674090820993800,2.420993896484375,-0.3603098872620612,-3.1134833179444072,-9.926166021740435
1691674090831040000,2.4310400390625,-0.20530520351119338,-3.10273512943685,-10.272448479628562
1691674090841085000,2.4410849609375,0.025583354067802426,-3.277220174205303,-10.333895758759974
1691674090851129900,2.4511298828125,0.11940613162517547,-3.4106045623004433,-10.164863718700408
1691674090861175800,2.46117578125,0.07589563733115792,-3.288292187839746,-10.300436556750535
1691674090871220700,2.471220703125,0.22814115856699643,-2.7683693193137646,-10.644289741665125
1691674090881266000,2.481265869140625,0.3827985632501542,-2.4479560466974974,-10.631827734977007
1691674090891311900,2.491311767578125,0.5669499926388263,-2.4698382081598043,-10.2812198151052
1691674090901357000,2.501357177734375,0.8273006454151123,-2.2571493972033263,-9.892751243394613
1691674090911401700,2.511401611328125,0.9875590849757194,-1.700014111614227,-9.369867186975478
1691674090921447700,2.52144775390625,1.2516425676047802,-0.7586661581933498,-8.910068240022659
1691674090931492900,2.531492919921875,1.5874959859371185,0.33695758018195626,-8.61985195274949
1691674090941537800,2.541537841796875,1.9032383441329002,1.1124807651519775,-8.428587622615694
1691674090951583700,2.551583740234375,2.2492636123895644,1.4849334370851517,-8.060755011698603
1691674090961629000,2.56162890625,2.398503741264343,1.7046739201188086,-7.680290298223495
1691674090971673900,2.571673828125,2.2902023564994334,1.8729589412033556,-7.132453002333641
1691674090981720000,2.581719970703125,2.0128291841864585,1.8786936854630707,-6.5604281906485555
1691674090991764700,2.5917646484375,1.800105886438489,1.686523346400261,-5.805628060233593
1691674091001810700,2.601810791015625,1.8167121533244848,1.45835990293622,-4.837859132876992
1691674091011856000,2.61185595703125,1.7550684748381375,1.4131144015431403,-4.121622249612212
1691674091021900800,2.62190087890625,1.6594436162948607,1.416104815530777,-3.381214801687002
1691674091031947000,2.631947021484375,1.4817963081032037,1.4615087223559617,-2.7473715394705533
1691674091041992000,2.641991943359375,1.3949340172082185,1.7080197234153747,-2.3529531194448468
1691674091052036900,2.652036865234375,1.1874223166286946,2.2354735719680785,-2.0187036291778084
1691674091062082800,2.662082763671875,0.898341755387187,3.094170130187273,-1.7661358122974633
1691674091072127700,2.672127685546875,0.7109796933889388,3.942130774858594,-1.5194021083980798
1691674091082173000,2.6821728515625,0.5019441442430019,4.768045007416606,-1.3450912511527537
1691674091092219000,2.692218994140625,0.28178981971144673,5.780706384944915,-1.230950492709875
1691674091102263800,2.702263916015625,0.07497077757120132,6.830203747439384,-1.1287661295205353
1691674091112308700,2.712308837890625,-0.10394560070820152,7.638552512690424,-1.1242167956531046
1691674091122354700,2.722354736328125,-0.4086159452695399,8.387469430285691,-1.2038234163314103
1691674091132399900,2.73239990234375,-0.7417220376551151,9.191554108351468,-1.165446047142148
1691674091142444800,2.74244482421875,-0.8886917373798787,9.808881704574823,-1.1650947494864463
1691674091152490800,2.75249072265625,-1.0658138526536525,9.753836109179257,-1.053470942300558
1691674091162536000,2.762535888671875,-1.26719669508934,9.380236605298519,-0.7104658986479043
1691674091172580900,2.772580810546875,-1.5284809023886918,8.972807312530279,-0.3846598270773887
1691674091182627000,2.782626953125,-1.7990858957409859,8.594571965542436,-0.14767536377608775
1691674091192671700,2.792671630859375,-1.971378691162169,8.386010463649034,-0.022398878812789916
1691674091202717000,2.802717041015625,-2.264613157212734,7.932745302379131,0.2982283288151026
1691674091212763000,2.812762939453125,-2.5169524260342118,7.378899121463299,0.6490244647353888
1691674091222807800,2.822807861328125,-2.6704768080994485,6.9774711149364705,0.9259335266679525
1691674091232853000,2.83285302734375,-2.9524601045563816,6.577416734850407,1.2995125722825527
1691674091242899000,2.84289892578125,-3.201724495977163,6.18016396818161,1.7426777798205613
1691674091252944000,2.85294384765625,-3.3373768290042873,5.82730563903451,2.1397288864374158
1691674091262989800,2.86298974609375,-3.498758938832581,5.514547849607467,2.4653987644076345
1691674091273034800,2.87303466796875,-3.594051204420626,5.253805494099855,2.758350614124536
1691674091283080000,2.883079833984375,-3.4138550885289907,5.076838569387793,3.0551579702258107
1691674091293126000,2.8931259765625,-3.1711095774829388,4.941559745848179,3.337377998048067
1691674091303170800,2.9031708984375,-3.040608635869622,4.829247956398129,3.561533374914527
1691674091313216000,2.913216064453125,-2.950406386896968,4.839154433384538,3.653009881606698
1691674091323262000,2.923261962890625,-3.0630817489624023,4.752814120537042,4.13028077236414
1691674091333307000,2.933306884765625,-3.365242741051316,4.659778986226022,4.638417926028371
1691674091343351800,2.943351806640625,-3.445815284152329,4.714458963179588,4.7840766892850395
1691674091353397800,2.953397705078125,-3.3571740008860824,4.718449786381423,5.004430335780978
1691674091363443000,2.96344287109375,-3.4271769269168373,4.7490898393169045,5.293443092483281
1691674091373487900,2.97348779296875,-3.5947646133869884,4.773589197540283,5.67353429647088
1691674091383534000,2.9835341796875,-3.667567399269342,4.815431904752552,6.0433221331089735
1691674091393578800,2.993578857421875,-3.925309403917193,4.863239950110018,6.017147242888808
1691674091403624000,3.0036240234375,-3.976096172824502,4.795156301704049,5.988005319556594
1691674091413670000,3.013669921875,-3.8838331919297575,4.727340656584501,6.028384091696143
1691674091423714800,3.02371484375,-3.88312913531363,4.8448099749282,5.9594315515011544
1691674091433760000,3.033760009765625,-3.945125280499458,5.007287478777766,5.905791146728396
1691674091443806000,3.043805908203125,-4.014637500403821,5.078216872003674,5.835937273779511
1691674091453850600,3.0538505859375,-3.999723716649413,5.136698871588707,5.788005309781432
1691674091463896800,3.063896728515625,-3.9542444065004583,5.185286084625124,5.78856761983931
1691674091473941800,3.073941650390625,-3.9316514664202926,5.272462848296761,5.737923474273085
1691674091483987000,3.083987060546875,-3.847331553484499,5.359552518206835,5.692659268179535
1691674091494028500,3.094028564453125,-3.823788180811703,5.35331391607821,5.634999106371402
1691674091504073700,3.10407373046875,-3.779315125095844,5.352167084130644,5.519060943117737
1691674091514118700,3.11411865234375,-3.6135485165730117,5.2467935695111745,5.484864659005403
1691674091524164600,3.12416455078125,-3.6508784225359556,5.269954664868116,5.204684612578153
1691674091534209500,3.13420947265625,-3.591977320756018,5.411859628549218,5.015546188557147
1691674091544254500,3.14425439453125,-3.3824189167797565,5.512580348926782,4.8660827723205085
1691674091554300700,3.15430078125,-3.257302298553288,5.654352626138925,4.6639124327689405
1691674091564345600,3.164345703125,-3.114164578206837,5.850999233832955,4.41885279956162
1691674091574390500,3.174390625,-2.6294188215240832,6.1803235426574945,4.013873238033056
1691674091584436700,3.184436767578125,-1.7485048785388468,6.522793164259195,3.623341304051876
1691674091594481700,3.194481689453125,-0.9963581852421164,6.903118177002668,3.3486323825120925
1691674091604526600,3.204526611328125,-0.5796776645258068,7.785510083585977,3.2684517613381145
1691674091614572500,3.214572509765625,-0.5802727078095078,8.856721265238523,2.9920003800451753
1691674091624617500,3.224617431640625,-0.5199500487938523,9.864655614244937,2.3543226542323827
1691674091634662700,3.23466259765625,-0.17875161617174742,10.631685111635923,1.4925187776476143
1691674091644708600,3.24470849609375,0.3093465196788311,10.939591369378567,0.48981648407578465
1691674091654753800,3.25475390625,0.3760790457367897,10.9205803794384,-0.7078285358816385
1691674091664799700,3.2647998046875,0.15825798645839095,10.724295590794085,-1.724089983728528
1691674091674844400,3.274844482421875,-0.12333163450583814,10.426149679565428,-2.627511234337091
1691674091684889600,3.2848896484375,-0.5109681393064558,10.24447793816328,-3.657413085001707
1691674091694935600,3.294935546875,-1.0347017982922493,9.83865374250412,-4.373001733490825
1691674091704980700,3.304980712890625,-1.4942343493938446,9.117426211345196,-4.8714668034464115
1691674091715025700,3.315025634765625,-1.7899394433416425,8.65787802428305,-5.469179014095664
1691674091725071600,3.325071533203125,-2.0217561486162245,8.269078028661012,-6.007355332192779
1691674091735116800,3.33511669921875,-2.2552163833141328,7.379086752989887,-6.371770828142762
1691674091745161500,3.345161376953125,-2.4202748435676096,6.333244990393519,-6.535066370376944
1691674091755207400,3.35520751953125,-2.6203531792759893,5.294246810081601,-6.487331974777579
1691674091765252600,3.365252685546875,-2.7886320628806947,4.382459882187843,-6.337023924410343
1691674091775297500,3.375297607421875,-2.981945434498787,3.807698339015245,-6.034809740829467
1691674091785343700,3.38534375,-3.266637989914417,3.8123137238562106,-5.85936432659626
1691674091795388700,3.395388671875,-3.668578329877555,3.9729783330649133,-5.956742750808596
1691674091805433600,3.40543359375,-4.001916258257627,3.6688837425649163,-5.824622683560848
1691674091815479600,3.4154794921875,-4.204001842135191,3.222558025169372,-5.536543408316374
1691674091825524500,3.4255244140625,-4.474781023010611,3.0294314082950353,-5.204185430884361
1691674091835569700,3.435569580078125,-4.86079314147979,2.8554426226109264,-4.888770989468694
1691674091845615600,3.44561572265625,-5.21677603238821,2.6041929025918242,-4.709912551921605
1691674091855660800,3.455660888671875,-5.528669313940406,2.264761041250825,-4.525814460155368
1691674091865706800,3.465706787109375,-5.822014546889067,1.9976333686202763,-4.2769682941466565
1691674091875751400,3.47575146484375,-6.121414257571101,1.774967353528738,-4.026282053229212
1691674091885796600,3.485796630859375,-6.3861600035011765,1.5598112756758928,-3.863064836928248
1691674091895842600,3.495842529296875,-6.624135815927386,1.2967892847985028,-3.680180797126889
1691674091905887500,3.505887451171875,-6.845978239676356,0.94186525529325,-3.4085771481260654
1691674091915932700,3.5159326171875,-7.093762329411506,0.5852449432641268,-3.28019071444869
1691674091925978600,3.525978515625,-7.21003834631741,0.2564268303960562,-3.1564564904913306
1691674091936023800,3.53602392578125,-7.37134183795154,-0.09463818559348583,-3.0637334908694025
1691674091946068500,3.546068359375,-7.406448807168006,-0.32016192820370193,-3.1734225306004284
1691674091956114400,3.556114501953125,-7.196447627860307,-0.37268180451393124,-3.3070164697930213
1691674091966159600,3.56615966796875,-7.151110941052436,-0.7390712308853864,-3.0750209008201956
1691674091976204500,3.57620458984375,-7.388722596341371,-1.1110182913839817,-2.9678087725967166
1691674091986250800,3.586250732421875,-7.610973016369343,-1.3124024489939212,-2.8129607407122847
1691674091996295700,3.596295654296875,-7.809819179934263,-1.6651339368909597,-2.703312909774482
1691674092006340600,3.606340576171875,-7.955753837522864,-2.1847060922831294,-2.5726611615136266
1691674092016386600,3.616386474609375,-8.127587490999698,-2.5331267312437293,-2.4285317997813225
1691674092026431500,3.626431396484375,-8.300773143607378,-2.4941560723364353,-2.4905238533139227
1691674092036477400,3.6364775390625,-8.423024143269657,-2.3118384342461824,-2.5898952049091455
1691674092046522600,3.646522705078125,-8.515068220716714,-2.172306629437208,-2.6128651616081595
1691674092056567600,3.656567626953125,-8.725724064540863,-1.9262614923238752,-2.7998300409823655
1691674092066613800,3.66661376953125,-8.91545519375801,-1.6228092913806438,-2.9069930693671107
1691674092076658700,3.67665869140625,-8.924906328192353,-1.367185594061017,-2.90932531170696
1691674092086703600,3.68670361328125,-8.858825544041395,-0.9933335767239332,-3.0338977400541305
1691674092096749600,3.69674951171875,-8.759583079522848,-0.48500645344555376,-3.1906375770345328
1691674092106794500,3.70679443359375,-8.673871712228655,-0.17876199143528937,-3.2078876947820185
1691674092116839700,3.716839599609375,-8.567546011450887,-0.07501344766914844,-3.2118025301381943
1691674092126885600,3.7268857421875,-8.403060382649302,-0.03352934463620186,-3.1725515929847954
1691674092136930800,3.736930908203125,-8.165659155240654,-0.03145253836214542,-3.130362264291942
1691674092146975500,3.7469755859375,-7.823338586720824,0.05875263321995735,-3.2567750598087906
1691674092157021400,3.757021484375,-7.286662736314534,0.3288566913127899,-3.602926292532682
1691674092167066600,3.767066650390625,-6.706367524412274,0.551092498293519,-3.811343709780276
1691674092177111600,3.777111572265625,-6.127479841220379,0.6412877330034971,-4.03594770719707
1691674092187157500,3.787157470703125,-5.324763528898358,0.855955735078454,-4.494235957325995
1691674092197202700,3.79720263671875,-4.689191835454106,1.0384265179038048,-4.863343118223548
1691674092207247600,3.80724755859375,-4.474942935574054,0.9658914430469274,-5.231627564561367
1691674092217293600,3.81729345703125,-4.065105412620306,0.7249690557748079,-5.835636245006323
1691674092227338500,3.82733837890625,-3.469975619679689,0.4252396747469902,-6.336333019536733
1691674092237384400,3.837384521484375,-3.080762367081642,0.03749941731095314,-6.679807434266805
1691674092247429600,3.8474296875,-2.5906805100679398,-0.24796295343339442,-7.063100649166107
1691674092257474600,3.857474609375,-2.063916397345066,-0.5125783509820699,-7.374301272279023
1691674092267520800,3.867520751953125,-1.599296898368001,-0.6569014817208051,-7.827191170495748
1691674092277565700,3.877565673828125,-0.8595844469696283,-0.4208037381261587,-8.409841421091556
1691674092287610600,3.887610595703125,0.013640987339615822,-0.013696516919136047,-8.661914147931336
1691674092297656600,3.897656494140625,0.4960965872585773,0.23237609272301196,-8.889261014315485
1691674092307701500,3.907701416015625,0.8321940434798598,0.2519143214076757,-8.781849271866678
1691674092317746700,3.91774658203125,1.3731979862183332,-0.07982406282126903,-8.501231418544053
1691674092327792600,3.927792724609375,1.5766998666346073,-0.7096960833191871,-8.299115439528226
1691674092337837800,3.937837890625,1.6333602037504313,-0.9942916081011295,-7.95023945801556
1691674092347882500,3.947882568359375,1.5204209300518035,-0.8306880228310823,-7.671709516882896
1691674092357928400,3.957928466796875,1.3998817027434707,-0.6020365035891533,-7.444761294427513
1691674092367973600,3.9679736328125,1.3889441291436553,-0.33444179796874524,-7.124185524725913
1691674092378018600,3.9780185546875,1.2920210474833846,0.058608256313204765,-6.713973907762766
1691674092388064500,3.988064453125,1.2190936123080551,0.5362777909994125,-6.359481839933991
1691674092398109700,3.998109619140625,1.1097777898035943,0.9544903435885905,-5.97857522791028
1691674092408155600,4.00815576171875,0.9145486476920545,1.268489657509327,-5.541962510755658
1691674092418200600,4.01820068359375,0.7660637210987508,1.4790642527908087,-5.266541057032346
1691674092428245500,4.02824560546875,0.6878219590328634,1.6539058559119701,-5.1106286107867955
1691674092438291500,4.03829150390625,0.6573473988573998,1.9249194300651549,-4.795012509319186
1691674092448336600,4.048336669921875,0.7018762764137237,2.421256840342283,-4.315051064303517
1691674092458381600,4.058381591796875,0.6945953256253152,2.9984178458720443,-3.8082863680362697
1691674092468427800,4.068427734375,0.7756698268990964,3.7451843074351547,-3.4268431649178264
1691674092478472700,4.07847265625,0.8001870130401104,4.743636542347073,-3.0628467711627483
1691674092488521700,4.088521728515625,0.6623579204957932,5.481147684308886,-2.5878677907347676
1691674092498568000,4.09856787109375,0.46292475082315504,5.915803422176838,-2.1944074020862576
1691674092508612900,4.10861279296875,0.3847792156733572,6.197160695689917,-1.7892635899066924
1691674092518658000,4.118657958984375,0.21476386366486547,6.297078282991051,-1.3832985244721174
1691674092528704000,4.1287041015625,-0.0826443809390068,6.401532344678044,-1.185796761253476
1691674092538748700,4.138748779296875,-0.4214613252520561,6.507651709228754,-1.29962947666049
1691674092548794600,4.148794677734375,-0.7609893404439091,6.621960809975862,-1.68477153429687
1691674092558839800,4.15883984375,-1.2486416322231293,6.438292341798544,-1.8649381318330764
1691674092568884700,4.168884765625,-1.5876859555512666,6.2124699085026975,-1.8095733874857425
1691674092578931000,4.178930908203125,-1.9465631065964697,5.961987665724754,-1.344814772298932
1691674092588975900,4.188975830078125,-2.277854331579804,5.59123302988112,-0.8875982430547475
1691674092599021000,4.19902099609375,-2.5099609597116705,5.164289473825693,-0.5066039527475834
1691674092609067000,4.20906689453125,-2.739352775926888,4.686195283986628,-0.15084756407141683
1691674092619111700,4.219111572265625,-3.0055268010944127,4.247712681306898,0.27007249391078947
1691674092629156900,4.229156982421875,-3.2020389687538144,3.830524211068451,0.683418317246437
1691674092639202800,4.239202880859375,-3.3300603685110803,3.469826858858764,1.0920680917203425
1691674092649248000,4.249248046875,-3.439660560914874,3.286198138169944,1.5140905579864978
1691674092659293000,4.25929296875,-3.577616494709253,3.1991523074015973,1.9139374328017233
1691674092669339000,4.2693388671875,-3.6785415054872628,3.0702289903685447,2.355475915920734
1691674092679383800,4.2793837890625,-3.728741998939216,2.9395038846105335,2.868466354835033
1691674092689428700,4.2894287109375,-3.7927909850016235,2.9162527728825807,3.3336090009033676
1691674092699474700,4.299474609375,-3.8591277897402643,2.989879442368448,3.8070103567510842
1691674092709520000,4.309519775390625,-3.848143162128329,3.068801880174875,4.248813043764233
1691674092719564800,4.319564697265625,-3.8126737893402574,3.1793565968245265,4.654195340874791
1691674092729611000,4.329611083984375,-3.8534205180093646,3.4045717118769883,4.936519413593411
1691674092739656000,4.339656005859375,-3.8152439320892095,3.702173433226347,5.167307944864034
1691674092749702000,4.349701904296875,-3.654527300432324,3.8971120679587123,5.342585016793012
1691674092759746800,4.359746826171875,-3.5734605440735816,4.033877915185689,5.477290424358844
1691674092769791700,4.369791748046875,-3.6016093647152183,4.205745763193071,5.667583279111981
1691674092779838000,4.379837890625,-3.671912734997272,4.385488290098309,5.759539093753695
1691674092789883000,4.3898828125,-3.819263689124584,4.559805577084422,5.779463691407441
1691674092799928000,4.399927978515625,-3.869896728774905,4.717535594145954,5.775059318968653
1691674092809974000,4.40997412109375,-3.893839914420247,4.803010522335767,5.746920435199141
1691674092820018700,4.420018798828125,-3.97412224240303,4.905390115836262,5.705549144890904
1691674092830063900,4.43006396484375,-3.9752670285239815,5.156012643867731,5.6085442301660775
1691674092840109800,4.44010986328125,-3.908864172811806,5.591074039927125,5.2546185640484095
1691674092850154800,4.45015478515625,-4.071183271229267,5.838356609880924,4.831278000921011
1691674092860200000,4.460199951171875,-4.124634875431656,5.870774193882942,4.7250762187838555
1691674092870246000,4.470245849609375,-4.0124738926291466,5.909774078884721,4.669847668036819
1691674092880290800,4.480290771484375,-3.934321562412381,6.125995740142464,4.379622612935305
1691674092890336800,4.490336669921875,-4.038366458776593,6.388025797373056,4.087278665983677
1691674092900381700,4.500381591796875,-4.10872009794116,6.4416673711895935,4.03701095251441
1691674092910427000,4.510427001953125,-4.019717872408032,6.480218343380093,3.922504867890477
1691674092920472800,4.520472900390625,-3.9606022510945795,6.5271548666000365,3.8492180978834627
1691674092930518000,4.53051806640625,-3.9629111125588414,6.611344723415375,3.620097207564115
1691674092940563000,4.54056298828125,-3.8592669059500095,6.812320884746312,3.2134950132697817
1691674092950609000,4.55060888671875,-3.7837721045047044,7.017927628487348,2.759076590311527
1691674092960653800,4.56065380859375,-3.7702018443137404,7.114038809242844,2.414789690154791
1691674092970698800,4.57069873046875,-3.6510987872883676,7.192215689378976,2.125739524051547
1691674092980745000,4.580744873046875,-3.535616551108658,7.350415369778871,1.7908762858003378
1691674092990790000,4.590789794921875,-3.4289284467592833,7.583235114616155,1.419845755624771
1691674093000834800,4.600834716796875,-3.336566681665182,7.737679826396703,1.064748707640171
1691674093010881000,4.610881103515625,-3.258404706837237,7.749850741183757,0.7680868974894285
1691674093020925700,4.62092578125,-3.2709377329349514,7.734913868814706,0.29428046797215934
1691674093030971000,4.630970947265625,-3.1816400315865874,7.791406740409135,-0.3630336862027645
1691674093041016800,4.641016845703125,-3.085751845932007,7.704667783632874,-1.008830421063304
1691674093051061800,4.651061767578125,-3.0411972494125363,7.220904023724794,-1.314043786460161
1691674093061108000,4.66110791015625,-2.8813866266846655,6.710299603164196,-1.500710851931572
1691674093071153000,4.67115283203125,-2.795352895568311,6.178672852841019,-1.8212053730905056
1691674093081198000,4.681197998046875,-2.7221581877589225,5.7201014018565415,-2.1735668586313723
1691674093091243800,4.691243896484375,-2.562749716091156,5.286840917739272,-2.4495652354598043
1691674093101288700,4.701288818359375,-2.4580501552104947,4.679904951670766,-2.7625264385044574
1691674093111334000,4.711333984375,-2.3674293885648248,4.226258097606897,-3.0724399444162844
1691674093121379800,4.7213798828125,-2.2864278063967824,3.9166444514244794,-3.3959792400985953
1691674093131425000,4.731425048828125,-2.2101791178442536,3.5353701751321553,-3.737484985104203
1691674093141470000,4.741469970703125,-2.0905402003765103,3.538836389937997,-4.124055614238977
1691674093151516000,4.751515869140625,-2.0447394031882284,4.06791462482214,-4.773886134660244
1691674093161560800,4.761560791015625,-2.0752407783053815,4.167576776057482,-5.2828913033306595
1691674093171606800,4.771606689453125,-1.8473263411663472,4.515276699528098,-5.73177781112492
1691674093181651700,4.781651611328125,-1.6608523140490055,5.453749389773607,-6.5557637059688565
1691674093191697000,4.79169677734375,-1.5130863493800162,6.223719032269716,-7.437564076399803
1691674093201742800,4.801742919921875,-0.9826245511829852,6.91266283493936,-8.323993275675177
1691674093211788000,4.8117880859375,-0.4415910900890827,7.510373292022943,-9.33342107810974
1691674093221832700,4.821832763671875,-0.15076792296394706,8.018814981591701,-10.352736068308353
1691674093231878700,4.831878662109375,0.07167407411336899,8.003537332960963,-11.263837352025508
1691674093241923800,4.841923828125,0.3781622817516327,7.424213011917471,-11.936152091455458
1691674093251968800,4.85196875,0.5541607998229563,6.329113005155325,-12.42276539557576
1691674093262015000,4.862014892578125,0.6747054339587688,4.9407244640678165,-12.77094521151781
1691674093272060000,4.872059814453125,0.615155512881279,3.421702294898033,-12.649300361055134
1691674093282105000,4.88210498046875,0.5982299509130418,1.8564836072206496,-12.456295909255742
1691674093292151000,4.892151123046875,0.6322070393167436,0.3426806340038776,-11.993507717359066
1691674093302195700,4.90219580078125,0.30087445940971375,-1.0779945581823587,-11.435775634920596
1691674093312242000,4.912241943359375,-0.1930605659008026,-2.1322604502528906,-10.997404091399908
1691674093322286800,4.922286865234375,-0.6344017728820442,-2.850719101220369,-10.509759690666199
1691674093332331800,4.932331787109375,-1.1178738563671708,-3.3299323582172393,-10.03561540749669
1691674093342378000,4.9423779296875,-1.5423324637390672,-3.6539854486405847,-9.615784898316859
1691674093352423000,4.9524228515625,-2.0275179270133377,-4.035493533688784,-9.027119917476176
1691674093362467800,4.9624677734375,-2.482442545928061,-4.176362140059471,-8.556386904054879
1691674093372513800,4.972513671875,-2.7823919994473454,-4.169628447890282,-8.226945106330513
1691674093382558700,4.982558837890625,-3.1900644533216953,-4.3901872615694995,-7.654725648856163
1691674093392604000,4.99260400390625,-3.6723654472008347,-4.484733092704415,-7.458023511582613
1691674093402649900,5.00264990234375,-3.8732252886757252,-4.423445388048887,-7.493823139238357
1691674093412695000,5.012695068359375,-3.913609029251337,-4.699080776783823,-7.3612179188221685
1691674093422739700,5.02273974609375,-4.182626753412187,-5.44704784630835,-6.9491463532060385
1691674093432785700,5.03278564453125,-4.552807681021094,-6.3274991402179,-6.165531631717085
1691674093442830800,5.042830810546875,-4.8740676335945725,-6.997600879773497,-5.301659716686606
1691674093452876800,5.052876708984375,-5.1704287072330715,-7.395681913959979,-4.627188676005602
1691674093462922000,5.062921875,-5.274598691281676,-7.6241317731499665,-4.096170705230533
1691674093472967000,5.072966796875,-5.146145914369821,-7.940419490268826,-3.665367843398452
1691674093483012900,5.083012939453125,-4.788033025695383,-8.316890165671706,-3.4989725815832613
1691674093493054200,5.09305419921875,-4.373085904642939,-8.657522634974121,-3.513740527126193
1691674093503099100,5.10309912109375,-4.139993188083172,-9.083251554542779,-3.1462478156879543
1691674093513145000,5.11314501953125,-4.159782468919456,-9.22182006727755,-3.2600252937763927
1691674093523190300,5.123190185546875,-4.080864415027201,-8.994932635098696,-3.6792841405481096
1691674093533235200,5.133235107421875,-3.713881406676769,-9.098514005604386,-4.056069580988586
1691674093543281400,5.143281494140625,-3.677385028928518,-9.4807749548465,-4.3612499208986755
1691674093553326000,5.153326171875,-3.7044264728501437,-9.887377149140834,-4.2912165997296565
1691674093563371300,5.163371337890625,-3.58236836541146,-10.306528443884849,-3.982463369768858
1691674093573417200,5.173417236328125,-3.6299049003511663,-10.46316861988306,-3.700762981906533
1691674093583462100,5.183462158203125,-3.5554140152513978,-10.017931282246112,-3.810459035900235
1691674093593508400,5.19350830078125,-3.3362320428833363,-8.970079933393,-4.32608625305891
1691674093603553300,5.20355322265625,-3.0736075268909335,-7.617175378140807,-5.12945664537549
1691674093613598500,5.213598388671875,-2.6134192883595824,-6.333593949961662,-6.156728147536516
1691674093623644400,5.22364453125,-2.517228320366144,-5.379205897703766,-6.4353206325113765
1691674093633689000,5.233689208984375,-2.8976062323406335,-4.090213550391793,-7.058013555160165
1691674093643734300,5.243734375,-2.7748922913417218,-2.2845289870381356,-8.77621740345955
1691674093653780200,5.2537802734375,-2.5532795846953986,-0.4811655601084232,-10.58180084452629
1691674093663825200,5.2638251953125,-2.7515000175774094,1.9729706365287303,-13.398469207584856
1691674093673870300,5.273870361328125,-2.8068331977427006,5.54367457537055,-16.295411130797863
1691674093683916300,5.283916259765625,-2.735357861071825,9.287980346405506,-18.286764980757237
1691674093693961200,5.293961181640625,-2.372602699549496,12.912514075112343,-20.40004775881767
1691674093704007200,5.304007080078125,-1.9900772541522977,16.520393606138228,-22.62631160389185
1691674093714052000,5.314052001953125,-2.1395463694773613,18.783842395746706,-23.582212983322144
1691674093724097300,5.32409716796875,-1.8529706306636333,20.732028135108948,-22.970938695788384
1691674093734143200,5.334143310546875,-1.5381728598415851,21.693243987560273,-21.35358766981363
1691674093744188400,5.3441884765625,-1.1627426334023474,22.084324203073976,-19.77197431217432
1691674093754233000,5.354233154296875,-0.7119850710391998,22.491492799079417,-18.445551521134377
1691674093764279000,5.364279052734375,0.029863826132286338,23.134179292964934,-17.09017151567936
1691674093774324200,5.37432421875,0.9385386681538075,23.354134880053994,-15.52084013198614
1691674093784369200,5.384369140625,1.6016659655869006,23.007207109999655,-13.950259040492773
1691674093794415400,5.394415283203125,2.2221207539200782,22.375434808838367,-12.134779643833637
1691674093804460300,5.404460205078125,2.940471268337965,21.36259632117748,-9.843934313255549
1691674093814505200,5.414505126953125,3.4907176711961623,20.538015967571734,-7.795888854259252
1691674093824551400,5.424551513671875,4.016339920407534,19.733204144275188,-5.7879965419530865
1691674093834596000,5.43459619140625,4.560905939541757,18.9343626275599,-3.8079789095222947
1691674093844642000,5.44464208984375,5.21144285466671,18.39878509378433,-2.0552759947717187
1691674093854687200,5.454687255859375,5.938298162579536,18.270417072546483,0.23528116651475428
1691674093864732200,5.464732177734375,6.356716466873884,18.23647739354372,2.1169056447327135
1691674093874778400,5.4747783203125,6.251528830215334,18.264162688326834,3.831166308364272
1691674093884823300,5.4848232421875,6.14607114444375,18.83577950373292,5.727542950034141
1691674093894868200,5.4948681640625,5.769075568383932,19.062882624489067,7.144629762339592
1691674093904914200,5.5049140625,5.343123945975304,19.53905636765957,8.135064695012568
1691674093914959000,5.514958984375,4.670891624131799,20.20680014591217,9.259939077791572
1691674093925004300,5.52500439453125,3.703051385104656,20.560943254172802,10.596949313819408
1691674093935050200,5.53505029296875,2.9142180521845815,21.010800652825832,12.483048307102917
1691674093945095400,5.545095458984375,2.5037878240346907,20.740894163131713,15.24618147932887
1691674093955141400,5.555141357421875,2.0842250258803365,20.46312936115265,17.250096704697608
1691674093965186000,5.56518603515625,1.8552514350771903,20.565843885695934,18.645740916001795
1691674093975231200,5.575231201171875,1.7238604127563535,20.220791261863706,19.624569582033157
1691674093985277200,5.585277099609375,1.6964695708751678,19.421106864583493,19.855044225049017
1691674093995322000,5.595322021484375,2.2096189997434617,18.932347196084258,20.16112560545206
1691674094005367300,5.6053671875,2.644135913662612,18.409891009688376,19.80705497790575
1691674094015413200,5.615413330078125,2.7221017813965678,17.556002728533745,18.92805797445774
1691674094025458400,5.62545849609375,2.7194892608106134,16.83852315173149,17.64521012125015
1691674094035503000,5.635503173828125,2.546876147393882,16.784274844193458,16.307679076218605
1691674094045549000,5.645549072265625,2.13071804311648,16.79558884989023,14.92098038791418
1691674094055594200,5.65559423828125,1.8780431125998496,17.01894635437727,13.21921972489357
1691674094065639200,5.66563916015625,1.444515063587576,17.1336225348711,11.501623194837569
1691674094075685400,5.675685302734375,0.9668215635038911,17.25201159840822,9.236801947832108
1691674094085730300,5.685730224609375,0.742778707101196,17.45721502204537,6.007378713068365
1691674094095775200,5.695775146484375,0.4666051198363304,17.435627459615468,2.0463702192604543
1691674094105821200,5.7058212890625,0.4167978634856641,17.983707916611433,-2.6742577879428864
1691674094115866000,5.7158662109375,0.23029899418801067,18.10449235085249,-6.358135686022043
1691674094125912000,5.725912109375,-0.4222890082478523,17.86319937670231,-9.81655180081129
1691674094135957200,5.735957275390625,-0.9628088207311928,18.89277155702114,-15.609344929391145
1691674094146002200,5.746002197265625,-2.127042569474131,18.867189371997117,-21.89384956201315
1691674094156048400,5.75604833984375,-3.3382723165392876,17.34515282344222,-23.85913841186762
1691674094166093300,5.76609326171875,-4.397377757595479,16.5579374471128,-23.66770983108282
1691674094176138200,5.77613818359375,-5.398641835057735,14.805593428802489,-22.84462117733955
1691674094186184200,5.78618408203125,-5.9234431232750415,12.58075347905159,-19.70528036456108
1691674094196229000,5.79622900390625,-6.760278562819957,10.603638582324981,-16.282109750676153
1691674094206275300,5.806275390625,-7.436694307827949,8.929926202180981,-13.204060734206438
1691674094216320300,5.8163203125,-7.649224128830433,7.59635470843017,-10.35792545364499
1691674094226365400,5.826365478515625,-7.586592608350515,6.41065848494172,-8.239164536434412
1691674094236411400,5.836411376953125,-7.437011118692159,5.304143934717774,-7.231540568551421
1691674094246456000,5.8464560546875,-7.364809221312403,4.021873589137196,-6.466185141852498
1691674094256501200,5.856501220703125,-7.370365101873874,2.6425445528179408,-5.712758637878299
1691674094266547200,5.866547119140625,-7.452205180692673,1.3013047163963316,-5.775729181054234
1691674094276592000,5.876592041015625,-7.426521288859844,-0.16567454632520676,-6.525546262359619
1691674094286637300,5.88663720703125,-7.448875159487128,-1.8800754952102898,-6.954157459366321
1691674094296683300,5.896683349609375,-7.593582321107387,-3.529782730388641,-7.493286548143625
1691674094306728200,5.906728271484375,-7.912256641101837,-4.7760552953928705,-8.464323537385463
1691674094316773000,5.916773193359375,-8.02004949182272,-6.059212360680103,-8.470718791380524
1691674094326819000,5.926819091796875,-7.980431767183542,-7.695158197009563,-7.718992077061533
1691674094336864300,5.9368642578125,-7.894441582947969,-9.153272016230225,-7.167629529654979
1691674094346910200,5.94691015625,-7.7305416450798505,-9.97220764194727,-7.166514261889457
1691674094356955400,5.956955322265625,-7.262696169793605,-10.37361051403284,-7.341860307401419
1691674094367000300,5.967000244140625,-6.984173827445507,-10.812647243463992,-7.243680503678322
1691674094377046300,5.97704638671875,-7.042963870066404,-11.343716944426298,-7.193286533480882
1691674094387091200,5.98709130859375,-7.320131875196099,-11.968258709812163,-7.1700640633255235
1691674094397136100,5.99713623046875,-7.685953146290779,-12.616421004760264,-6.699869979086518
1691674094407182300,6.007182373046875,-7.556009254038333,-12.950440193402766,-6.372098160400986
1691674094417227300,6.017227294921875,-6.865061125808954,-12.68125967989564,-6.410765452447533
1691674094427272200,6.027272216796875,-6.185195532608032,-11.971244447624683,-6.598901421427726
1691674094437318400,6.037318359375,-5.759487071305513,-11.189299120652676,-6.404663628441095
1691674094447363000,6.047363037109375,-5.584827254492044,-10.09274306986332,-6.157838154605031
1691674094457409000,6.057408935546875,-5.684989756464958,-8.486087040904163,-6.271218450069427
1691674094467454200,6.0674541015625,-5.677615428304672,-6.8032233860552305,-7.054130576246976
1691674094477499100,6.0774990234375,-5.642049609404802,-5.02779426023364,-9.062577015304566
1691674094487545300,6.08754541015625,-5.576380913186073,-3.0685195561021565,-11.869509581768511
1691674094497593000,6.097593017578125,-5.086527019709348,-1.157887010064721,-14.256657231760023
1691674094507638300,6.10763818359375,-4.466359523884952,0.8504577221840619,-15.795633224678038
1691674094517684200,6.117684326171875,-4.23602428933978,2.598451144069433,-16.659604508429766
1691674094527729200,6.127729248046875,-4.160401769861578,3.712982412010431,-17.053891411030293
1691674094537774000,6.137774169921875,-3.801159877157211,5.352710104966163,-17.033320916688442
1691674094547820000,6.147820068359375,-3.2858746053040027,7.8282082385838025,-16.755206570619343
1691674094557865200,6.157865234375,-2.277369762933254,10.682553713607787,-17.181473834848404
1691674094567910100,6.16791015625,-0.3617734570086002,13.41849258943796,-18.436397908341885
1691674094577956000,6.1779560546875,0.6220272983469068,14.662165785598754,-18.37730508338213
1691674094588001000,6.1880009765625,0.8886392034750431,15.286312414187192,-17.768834162831304
1691674094598047000,6.198046875,1.628862600070238,16.117612431436775,-17.149131069648266
1691674094608092200,6.208092041015625,2.3685937561690804,16.121417668938637,-15.742759712624549
1691674094618137000,6.21813720703125,3.078225542080402,15.978666902083157,-14.509939918911456
1691674094628183000,6.22818310546875,3.9464112286567685,15.85773633736968,-13.423074072009324
1691674094638228200,6.238228271484375,4.790724456736445,15.576894612163304,-11.661370689201354
1691674094648273000,6.24827294921875,5.258727752932906,15.22898601437807,-9.631755205386877
1691674094658319000,6.258319091796875,5.954226384073496,14.82517491210699,-7.230137716016173
1691674094668364000,6.268364013671875,6.923380628308654,14.412394905960559,-4.808546529152989
1691674094678410000,6.278409912109375,8.097032193738222,14.11326465986967,-2.713874343538284
1691674094688455200,6.288455078125,9.017132191947102,13.975067318534851,-0.6212842248946427
1691674094698500000,6.2985,9.806422620984911,14.223905301237105,1.3724047900140284
1691674094708546000,6.308546142578125,10.412298848867415,14.358675006210802,3.5219413692384958
1691674094718591200,6.31859130859375,10.739742166250943,14.31668061556816,5.701393194255233
1691674094728636000,6.328635986328125,10.704037231141328,14.249866256445646,7.4047881804794065
1691674094738682000,6.33868212890625,10.688886423760652,14.199245491755008,9.04677037436366
1691674094748727000,6.34872705078125,10.850665716212987,13.660594541883468,10.670507886505126
1691674094758772200,6.358772216796875,10.291887339591979,13.156601063895225,11.946487607508898
1691674094768818200,6.368818115234375,9.534711127695441,13.604630078077316,13.129227903801201
1691674094778863000,6.378863037109375,8.583266727674006,14.12312905128002,14.601827929013966
1691674094788908000,6.388907958984375,7.366970198738574,14.276089077460766,15.809776316320896
1691674094798954000,6.3989541015625,6.4676096216976635,14.56737737787962,17.30190171073675
1691674094808999200,6.408999267578125,5.703869813501835,14.737662632870673,18.235027779257297
1691674094819045000,6.419045166015625,4.319474141442775,14.539647659432887,18.417573965406415
1691674094829090000,6.429090087890625,3.240723796457052,14.425170216381549,18.387017499101162
1691674094839135200,6.43913525390625,2.8996693023502824,14.606549696838854,18.050592418360708
1691674094849181200,6.44918115234375,2.4344904159247873,14.404533086544275,17.611491391521692
1691674094859226000,6.45922607421875,2.122606925114244,14.13717394324541,16.80802747570276
1691674094869271000,6.46927099609375,1.8288015273079274,14.090310485261679,15.928471669328212
1691674094879317000,6.47931689453125,1.233416006040573,14.272512972539662,14.869254876852034
1691674094889362200,6.489362060546875,0.9214914525672793,14.797868387508391,13.40176591104269
1691674094899407000,6.499406982421875,0.8072694455817341,15.688609604763984,11.374725830674171
1691674094909453000,6.509453125,0.3412321887612343,16.446318316102026,8.608650175255537
1691674094919498200,6.519498291015625,0.06509235763549805,17.230593547326325,5.56206363402009
1691674094929543000,6.52954296875,0.16939765850156543,18.164094878900052,1.397073951846361
1691674094939589000,6.539589111328125,0.15987170526534317,18.919214158266783,-3.01631122995913
1691674094949634000,6.549634033203125,-0.5196361605390906,19.612298129481076,-6.848779853093624
1691674094959680000,6.559679931640625,-2.0926260667398573,20.374677170717714,-9.317989115700126
1691674094969725200,6.56972509765625,-3.2318589374780653,21.578076808679103,-12.892200770401955
1691674094979770000,6.57977001953125,-3.465093692857027,21.88564053659439,-17.578497468936444
1691674094989816000,6.589816162109375,-3.685848613630235,20.727966877019405,-19.26584616024494
1691674094999861000,6.599861083984375,-4.249141252805292,19.27412766637802,-19.181985973775387
1691674095009906200,6.60990625,-5.175445658612251,17.33275160703063,-18.84204674743414
1691674095019952000,6.6199521484375,-6.434656031122803,14.897642766946554,-17.10939760967493
1691674095029997000,6.6299970703125,-7.669181459710002,12.814558727794886,-15.281377880394459
1691674095040043000,6.64004296875,-7.859304803115129,11.186290001964569,-13.552577234756946
1691674095050088200,6.650088134765625,-7.416281634396314,9.974421810865401,-12.347872943937778
1691674095060133000,6.660133056640625,-7.08685561876297,8.681078867128491,-11.911106497526168
1691674095070179300,6.670179443359375,-6.625308951359987,7.444642051962018,-12.080603817009925
1691674095080224000,6.68022412109375,-6.36300826049447,6.11966361451149,-12.346161463844776
1691674095090269200,6.690269287109375,-6.397115697279572,4.2670010268837215,-12.133958975100516
1691674095100315100,6.700315185546875,-6.365040058583021,1.927183283343911,-11.733601228153704
1691674095110360000,6.710360107421875,-6.291148308420181,-0.5908803188025951,-11.321582269507646
1691674095120405200,6.7204052734375,-6.347542980337143,-2.9383108754336833,-10.64030447142124
1691674095130451200,6.730451171875,-6.533250260865688,-4.993753458943963,-9.67669324826598
1691674095140496100,6.74049609375,-6.75592796639502,-6.210325882211327,-10.110283402729033
1691674095150541000,6.750541015625,-7.062443646562099,-6.703886228990554,-12.103491356122493
1691674095160587000,6.7605869140625,-7.3589943975538015,-7.534713952553272,-13.271965811175107
1691674095170632200,6.770632080078125,-7.628223426377772,-8.979552110615373,-12.982703463625906
1691674095180678100,6.78067822265625,-8.20584152802527,-10.621244381642342,-11.980735914069413
1691674095190723000,6.79072314453125,-9.0012291048944,-12.303327699768543,-10.921321553194522
1691674095200768000,6.80076806640625,-9.871024564754963,-13.824210402113199,-9.420456387484073
1691674095210814000,6.81081396484375,-10.629748006093502,-14.709647667741775,-8.164099066317082
1691674095220859100,6.820859130859375,-10.834959613037109,-14.747325948750971,-7.5292971882015465
1691674095230904000,6.830904052734375,-10.592635542273522,-14.145863445657492,-6.951325450810789
1691674095240950000,6.840949951171875,-10.31547630497217,-13.266189565861225,-6.214799228233098
1691674095250995200,6.8509951171875,-10.040758031082152,-12.331821972846985,-5.651231279247999
1691674095261040000,6.8610400390625,-9.741348383527994,-11.143182681643962,-5.378084200197458
1691674095271086300,6.87108642578125,-9.416782667407393,-9.769552733749151,-5.480467300829291
1691674095281131000,6.881131103515625,-8.914110793411732,-8.399172143039106,-6.393441977202892
1691674095291177000,6.891177001953125,-8.518384797918795,-6.772954504519701,-7.810949645268916
1691674095301222100,6.90122216796875,-7.967687436422705,-4.988339617201685,-9.674283264514804
1691674095311267000,6.91126708984375,-7.347956870710849,-3.2037679845035076,-11.933265722364187
1691674095321313000,6.92131298828125,-6.938228653350472,-1.161146888643503,-14.198357018482684
1691674095331358200,6.931358154296875,-6.544352085116505,1.3922732735663652,-16.432820536625385
1691674095341403000,6.94140283203125,-5.874292431136966,4.493548851844668,-18.879817382901905
1691674095351449000,6.951448974609375,-4.748501518034935,7.253812021592259,-20.79028860089779
1691674095361494000,6.961493896484375,-3.759801446330547,8.678473653066158,-21.50864496053457
1691674095371539200,6.971539306640625,-2.824112833845615,9.686628951346874,-21.11207725352049
1691674095381585200,6.981585205078125,-1.6966987034559249,11.106944662570953,-19.80185273308754
1691674095391630000,6.991630126953125,-0.7616708929672836,12.36603287000656,-18.392236110532284
1691674095401676300,7.00167626953125,0.13273556879758833,13.22660340540409,-17.354208236557245
1691674095411721000,7.011720947265625,0.9974309290401637,13.92034905539751,-16.612977197289467
1691674095421766100,7.02176611328125,1.647978803950548,14.39189689233303,-15.591462066698073
1691674095431812000,7.03181201171875,2.1892004810929295,14.58958570255637,-14.266061019921302
1691674095441857000,7.04185693359375,2.8342344148874283,14.52084359024167,-12.321975117093324
1691674095451902200,7.051902099609375,3.518279339599609,14.382173955219983,-10.131994883799551
1691674095461948200,7.0619482421875,3.983551749527454,14.053767345762251,-7.690313679587841
1691674095471993000,7.0719931640625,4.114637797552347,13.798127866351603,-5.4077977859377855
1691674095482038000,7.0820380859375,4.407704213559628,13.846015406686067,-3.144764006870985
1691674095492081200,7.0920810546875,4.987144269937277,13.89311968768835,-0.5757797803044319
1691674095502126300,7.102126220703125,5.5492929997742175,13.691992719709873,1.8281190980017183
1691674095512172300,7.11217236328125,5.985892857447266,13.740518557947873,3.6084044316828248
1691674095522217000,7.122217041015625,6.2461711025744675,14.189314464849232,5.332336009979247
1691674095532262100,7.13226220703125,6.491454023143649,14.90117444820404,7.236338324221968
1691674095542308000,7.14230810546875,6.9889575545907014,15.547635784453153,8.678812675762176
1691674095552353000,7.15235302734375,7.523180166625976,15.64920698418021,9.43982042864561
1691674095562398200,7.162398193359375,7.338613872826099,15.421718078976868,10.600984852945803
1691674095572444200,7.172444091796875,6.453582265388965,14.92728387197256,12.031354340672491
1691674095582489000,7.182489013671875,5.466957246392965,14.500349083745478,13.18214233238697
1691674095592534000,7.192533935546875,4.767380406028032,14.382873043400048,13.996619809651374
1691674095602580000,7.202580078125,3.976041812288761,13.763674977129696,13.912807553976773
1691674095612625200,7.212625244140625,3.104827133280039,13.43507196831703,13.82428171378374
1691674095622670000,7.222670166015625,2.3777380166113375,13.408890063834189,13.458953194642065
1691674095632716300,7.23271630859375,1.500195595885813,13.20023328487277,12.335027490890026
1691674095642761000,7.242760986328125,0.6351543448150158,12.952322353887558,11.344894171512125
1691674095652807000,7.252806884765625,0.08980097469538449,12.603180414915084,10.662670617008208
1691674095662852000,7.26285205078125,-0.41968876262158156,12.480033343195915,10.031627799165248
1691674095672897000,7.27289697265625,-1.1027373697727918,12.453247043079138,9.682134562537074
1691674095682943200,7.282943115234375,-1.6925673027396202,12.362766561686993,9.513892211550473
1691674095692988200,7.29298828125,-1.7154481198504565,11.991080782473087,9.732523272037506
1691674095703033000,7.303033203125,-1.7830393085643648,11.49890166091919,9.928756622755527
1691674095713079300,7.313079345703125,-1.9930992323219774,11.4416980107069,10.131899022209645
1691674095723124000,7.3231240234375,-2.3981156187295913,11.589727010226248,9.655551676037907
1691674095733169200,7.333169189453125,-2.613879891608655,11.717885772627591,8.434107262820005
1691674095743215000,7.343215087890625,-2.878832850548625,12.039212652957438,6.584663637238741
1691674095753260000,7.353260009765625,-2.774344009809196,12.662087361913919,3.482296172070503
1691674095763306200,7.36330615234375,-2.0609034792646765,12.971518052744864,0.2896294272959232
1691674095773351200,7.37335107421875,-1.231297406451404,12.720243782806396,-1.9586118563085793
1691674095783396000,7.38339599609375,-0.4652794241905212,12.257141118133067,-3.6198692440271376
1691674095793442000,7.393442138671875,-0.19449965879321096,11.603609405106305,-4.647938034045696
1691674095803487000,7.403487060546875,-0.7170002688527107,11.072580620676279,-4.685148697543144
1691674095813532200,7.4135322265625,-1.419172678668797,11.109066477030515,-5.031795312568545
1691674095823578000,7.423578125,-1.8409607516571878,11.266814906531572,-5.857513730293512
1691674095833623300,7.433623291015625,-1.9840262835502622,11.529140147316456,-6.7249126504063605
1691674095843668200,7.443668212890625,-1.824690292596817,12.14864801018834,-8.642410990560053
1691674095853714200,7.453714111328125,-2.026660433401167,12.561249152636528,-10.927989778912067
1691674095863759000,7.463759033203125,-2.2024045383200046,12.504122659313678,-12.379109793722629
1691674095873805000,7.47380517578125,-2.2984169348761436,11.73601881068945,-13.956666569447517
1691674095883850000,7.48385009765625,-2.4765549491941927,9.775835759541392,-14.570308170634508
1691674095893895200,7.493895263671875,-2.669314194060862,6.920335269263386,-13.332016082990169
1691674095903941000,7.503941162109375,-2.899735645584762,3.8589217457741496,-11.908812833631037
1691674095913986300,7.513986328125,-3.4974890650272368,1.0589245315313338,-10.425127935302257
1691674095924031000,7.524031005859375,-4.4829301349356765,-1.1735130337417126,-8.99009279385209
1691674095934077000,7.534076904296875,-5.218909537285566,-2.6095617361485957,-8.286102813220024
1691674095944122000,7.5441220703125,-5.504083738738298,-3.495309967422485,-7.100932074910402
1691674095954167000,7.5541669921875,-5.409177257597446,-4.407660958939791,-5.911093929311633
1691674095964213200,7.564213134765625,-5.217109794387221,-5.208351902914047,-5.449513359639048
1691674095974258200,7.574258056640625,-4.849202364668249,-5.75361788701117,-5.196831560990214
1691674095984304000,7.58430419921875,-4.7072050465285775,-6.2389762226343155,-4.989396432778239
1691674095994349000,7.59434912109375,-4.8419785508945585,-6.820842629376053,-4.634648636622726
1691674096004394000,7.60439404296875,-5.071259307950735,-7.3315470031797885,-4.575286639332771
1691674096014440000,7.61443994140625,-4.971432321542501,-7.823032881772518,-5.297236639547347
1691674096024485000,7.624485107421875,-4.787169686864316,-8.569664318779111,-5.638063754639029
1691674096034530000,7.634530029296875,-4.946800569111108,-8.976921177589892,-5.93560527023375
1691674096044576300,7.644576171875,-5.389432108163834,-8.763646091178058,-6.577112783467769
1691674096054621200,7.65462109375,-5.757322002226114,-8.562059688994289,-6.593654752945899
1691674096064666000,7.664666015625,-5.715849005109072,-8.301051376026868,-6.4920630949527025
1691674096074712000,7.674712158203125,-5.7048623316705225,-7.386079972878098,-6.974001977521181
1691674096084757000,7.684757080078125,-5.731513607230782,-5.760619874727726,-7.8685835035920135
1691674096094803200,7.69480322265625,-5.767647581407427,-3.7544051402449607,-8.787728977555036
1691674096104848100,7.70484814453125,-5.67250904507637,-1.4189298098236323,-10.527782838612794
1691674096114893300,7.714893310546875,-5.513054396179318,0.7837363020420074,-13.217696460849046
1691674096124939300,7.724939208984375,-5.768382909944653,2.018132551291585,-15.215552532309292
1691674096134984000,7.73498388671875,-6.0975038051515815,2.7224182999998328,-16.161540420490503
1691674096145029000,7.745029052734375,-6.35588469222486,3.2649715180069205,-16.77510954096317
1691674096155075000,7.755074951171875,-6.478395219606161,3.1899650846004484,-16.903427293318508
1691674096165120000,7.7651201171875,-6.390581911596655,3.3679783034950495,-16.72777612738013
1691674096175165200,7.775165283203125,-6.065135320988297,4.908053197565675,-16.500463747787474
1691674096185211100,7.785211181640625,-5.653083044594526,6.7680830990910525,-15.73966057756543
1691674096195256000,7.795256103515625,-5.20198762857914,8.242665238031744,-14.666373174160718
1691674096205301000,7.805301025390625,-4.432463684023917,9.884538710844517,-13.963198017042874
1691674096215347000,7.815346923828125,-3.48655382951498,11.81641745852828,-13.368607153284549
1691674096225392000,7.82539208984375,-2.5460963951930404,13.34199153355956,-12.790790898716448
1691674096235438000,7.83543798828125,-1.7190625109553337,14.053178147697448,-12.523201453793048
1691674096245483300,7.845483154296875,-1.0917898593008517,14.542610016369819,-12.152637956607341
1691674096255528200,7.855528076171875,-0.4937050159469247,14.756909769654273,-11.346668779969214
1691674096265574100,7.86557421875,0.3036811873935163,14.421945993638039,-10.419069950437546
1691674096275619000,7.875619140625,1.2587982845783232,13.783524171459675,-9.462740700984
1691674096285664000,7.8856640625,2.1984582849122583,12.899998292410373,-8.241154833468794
1691674096295710200,7.895710205078125,2.9145933152377603,12.287421690106392,-6.6668012376993895
1691674096305755100,7.905755126953125,3.1368834827542305,12.126915486329793,-5.1500540277242655
1691674096315800000,7.915800048828125,3.4112732553422447,12.100748779416083,-3.653125032418966
1691674096325846300,7.92584619140625,3.785432731193304,12.210657599377631,-2.147259866464138
1691674096335891000,7.935890869140625,4.246780661153793,12.475423803573847,-0.5317196893036366
1691674096345937000,7.94593701171875,4.861040101978182,12.422348046946524,1.200758183541894
1691674096355982000,7.955982177734375,5.560556736588477,12.135140878361463,2.960599864131212
1691674096366027000,7.966027099609375,5.859891565340757,11.942760695940255,4.709089545100927
1691674096376073200,7.9760732421875,5.826386770623922,12.004402036339044,6.33753245845437
1691674096386118100,7.9861181640625,5.729724385726452,12.334938643562793,7.62654935568571
1691674096396163300,7.996163330078125,5.406787732112408,12.745890265238284,8.635154151299595
1691674096406209000,8.006208984375,4.809668226659298,12.858042480212449,9.702644266602396
1691674096416254000,8.01625390625,4.413626589345932,13.1390782666862,10.695647003936767
1691674096426299100,8.026299072265624,3.6915713751912116,13.7534844225049,11.232457878899574
1691674096436345000,8.036344970703125,3.146848411929607,14.575540810590981,11.744886007755994
1691674096446390300,8.046390380859375,2.864526092776656,14.77722541245222,12.362348044013975
1691674096456436200,8.056436279296875,2.600855282601714,14.81113118918538,12.716229286468028
1691674096466481200,8.066481201171875,2.553420454470813,15.156707544630764,12.865747647762298
1691674096476526000,8.076526123046875,2.3066671690881253,15.105574738764762,13.609763349312543
1691674096486572000,8.086572021484375,1.9427306888267397,14.94278188535571,14.601739081686734
1691674096496617000,8.096616943359376,2.252652670305967,15.208666864448785,15.244079538613557
1691674096506662000,8.106661865234376,3.031733547757566,15.807960791331528,15.671576636898516
1691674096516707800,8.116707763671876,3.2760049531966446,16.367136642837522,15.785976923060415
1691674096526753000,8.1267529296875,3.433619234924018,16.745857727515695,15.272341171979903
1691674096536798000,8.1367978515625,3.691510584914684,17.236823381626603,14.37511176174879
1691674096546844000,8.146843994140625,3.7088603636443613,17.28142824702859,13.415720786637067
1691674096556888800,8.156888916015625,3.9276679497420783,17.39047548172474,11.891197681963442
1691674096566934800,8.166934814453125,3.6959365846633907,17.52853955206871,9.61440308856964
1691674096576980000,8.17697998046875,3.4127041649281975,17.746807039940357,7.393862297317385
1691674096587025000,8.18702490234375,3.195543761515617,17.984707449042794,4.587742800801992
1691674096597070800,8.19707080078125,3.102713502126932,18.19184096395969,1.2938836264848708
1691674096607116000,8.207115966796875,2.947028434896469,18.089500533425806,-1.7509902656137941
1691674096617160700,8.21716064453125,2.744154915511608,18.122049050331114,-5.205483069479465
1691674096627207000,8.22720703125,2.510092769397795,18.036176939517258,-8.24834386819005
1691674096637251800,8.237251953125,2.0843620962634684,17.62568475204706,-9.411016943487525
1691674096647297000,8.247297119140624,1.3067784716323017,17.436912238729,-9.731038586437702
1691674096657343000,8.257343017578124,0.04767565114945173,17.025350376200674,-9.823437468671798
1691674096667388000,8.267387939453124,-0.9761714295208453,16.154615005141494,-9.470578555002808
1691674096677433000,8.27743310546875,-1.8542419657737015,15.508265897095203,-9.013066257682443
1691674096687479000,8.28747900390625,-2.895037843157351,14.857510663044453,-8.622977391293645
1691674096697523700,8.297523681640625,-3.8162092699900265,14.241125316107272,-8.776404450464248
1691674096707570000,8.30756982421875,-4.718659629739821,13.133878359955549,-8.857313970434666
1691674096717614800,8.31761474609375,-5.33372951016426,11.740186451762915,-8.562454241269826
1691674096727660000,8.327659912109375,-5.954386543071269,10.231855772477388,-8.205755603307486
1691674096737706000,8.3377060546875,-6.481078175079822,8.622355460003018,-7.648940051192045
1691674096747751000,8.3477509765625,-6.832096429318189,7.171821136125922,-7.163361350816488
1691674096757795800,8.3577958984375,-7.137491581022739,5.796650973051786,-6.768734256476163
1691674096767841800,8.367841796875,-7.248537880581617,4.584633144348859,-6.693858755972981
1691674096777887000,8.377886962890624,-7.191188099896907,3.628989539071917,-6.79803984593749
1691674096787932000,8.387931884765624,-7.086771447610855,2.4674995360791683,-6.73362378012836
1691674096797977900,8.397977783203125,-7.061671493145823,1.1801730761528015,-6.478076070654392
1691674096808023000,8.40802294921875,-7.037700834971666,0.09480535885393619,-6.279356163817644
1691674096818069000,8.418069091796875,-6.935905178838968,-0.8819681282132863,-6.274895092755556
1691674096828114000,8.428114013671875,-6.918184813231229,-1.8273504517167805,-6.3064271260946985
1691674096838158800,8.438158935546875,-7.001296227160096,-2.6421102530539033,-6.361784856179356
1691674096848204800,8.448204833984375,-7.034267937913537,-3.5085914737999437,-6.319253289920091
1691674096858250000,8.45825,-7.183880407232046,-4.389356655964255,-6.160694713079929
1691674096868295000,8.468294921875,-7.533257324004173,-5.171558003523946,-5.835693528151512
1691674096878340900,8.4783408203125,-7.854774173948169,-5.742004021584988,-5.526104431888461
1691674096888386000,8.488385986328124,-8.02957719862461,-5.964988016584515,-5.420352147084475
1691674096898430700,8.4984306640625,-8.195210828417538,-5.960042961397766,-5.406826310557126
1691674096908477000,8.508476806640624,-8.504885849398374,-6.031302609491348,-5.179511008355021
1691674096918521900,8.51852197265625,-8.688361425352095,-6.0768731050550935,-5.344419831004738
1691674096928567800,8.52856787109375,-8.839208989423513,-6.0289540005385875,-5.966510111585259
1691674096938613000,8.538613037109375,-8.895092789208888,-6.143090667328238,-6.190507667541503
1691674096948658000,8.548657958984375,-8.974097352340817,-6.116075819152593,-6.3592322490870945
1691674096958703900,8.558703857421875,-9.1887355437994,-5.674239229869842,-7.055431137451529
1691674096968748800,8.568748779296875,-9.208186094200611,-4.765273204615712,-8.388539689865707
1691674096978794000,8.5787939453125,-8.971260667610167,-3.582605973559618,-9.865219093346596
1691674096988840000,8.58883984375,-9.021246641528606,-2.2721809621185063,-11.505492729747294
1691674096998884900,8.598884765625,-9.355313176444172,-0.5840548566967249,-13.245078973293303
1691674097008930000,8.608929931640626,-9.608524551925063,1.3448755625754594,-15.233866772156953
1691674097018976000,8.61897607421875,-10.018732077234983,3.1506355292528867,-17.529817316919566
1691674097029020700,8.629020751953124,-10.7156914285779,4.931008541217446,-19.70076084131002
1691674097039067000,8.63906689453125,-11.175751072293519,6.803377115312219,-20.450772568404673
1691674097049111800,8.64911181640625,-10.75727899198532,8.436304480603336,-20.06999864284992
1691674097059157000,8.659156982421875,-9.900224940276145,9.628592941963673,-19.145004442858696
1691674097069203000,8.669202880859375,-8.664864814430475,10.780297464001178,-17.424202394759654
1691674097079248000,8.679247802734375,-6.607407383966446,11.649165872144698,-15.708640000879763
1691674097089293000,8.68929296875,-4.354293525889515,11.58886542496085,-14.096258580011128
1691674097099339000,8.699339111328126,-2.5380609727755186,11.152048709666728,-12.9243050506711
1691674097109384000,8.709384033203126,-1.100894079993665,10.523783539843558,-11.620857477027178
1691674097119428900,8.719428955078126,0.28178660484105345,9.605071781122684,-10.504113209211825
1691674097129474800,8.729474853515624,1.9386451730787753,8.507039228039979,-9.86174001905918
1691674097139520000,8.73952001953125,3.6134663912475107,7.807834143596887,-8.483526250505447
1691674097149566000,8.74956591796875,4.884392335993051,7.132619591072201,-6.703568249082565
1691674097159611000,8.75961083984375,5.221057070708275,6.691342389237881,-5.427357641932368
1691674097169655800,8.76965576171875,5.390471388083696,7.4076903316617,-5.511400783753395
1691674097179701800,8.77970166015625,6.229800398010015,8.456310911321639,-5.832030329468846
1691674097189747000,8.789746826171875,7.731110969400405,9.346285235857962,-5.015895732647181
1691674097199791900,8.7997919921875,9.521440727233886,10.037578232002257,-3.949868675634265
1691674097209837800,8.809837890625,11.05939029971361,9.914109673243761,-2.188595500937104
1691674097219883000,8.819883056640625,11.204008029484749,10.130735823649168,0.5643798498898744
1691674097229928000,8.829927978515625,10.15855438942313,10.660538281154633,2.995252075317502
1691674097239974000,8.839973876953126,9.492180730479955,11.04958436049223,4.857840429154038
1691674097250018800,8.850018798828126,9.333573053801059,11.873775422519445,6.198738320270181
1691674097260064800,8.860064697265624,9.542671731311083,13.078436458718777,7.955428258830309
1691674097270110000,8.87010986328125,9.42508463180661,14.007318898320197,9.44918330027461
1691674097280155000,8.88015478515625,9.178949478322266,14.815319873046874,10.718272677242755
1691674097290200800,8.890200927734375,9.514940843820572,15.836416485965252,12.04969313043952
1691674097300246000,8.90024609375,9.587555998176336,16.666373271912335,13.130400454711912
1691674097310290700,8.910290771484375,9.410832819092272,16.945752523350716,14.330377132487296
1691674097320337000,8.9203369140625,9.294327085083722,16.964326290917395,15.886797596681117
1691674097330381800,8.9303818359375,9.078446784609556,16.83376981972456,17.238967407917976
1691674097340427000,8.940427001953125,8.10844907528758,16.61157317571044,18.14896979048252
1691674097350473000,8.950472900390626,6.612319705927372,16.318696144795418,18.7840808806777
1691674097360518000,8.960517822265626,5.115175022044777,15.75277374163866,18.75078885192871
1691674097370564000,8.970564208984374,3.9241394833549856,15.593731180673837,18.201582605773208
1691674097380608800,8.98060888671875,2.753446475470066,15.512119065392016,17.143437826442717
1691674097390654000,8.990654052734374,1.5018661594465375,15.457101527047156,15.510553715771437
1691674097400700000,9.000699951171875,0.48144262348413464,15.61942559390068,13.262327045214175
1691674097410744800,9.010744873046875,-0.18425766624212264,15.988257737249135,10.818223582291603
1691674097420790000,9.0207900390625,-0.539758911113441,16.72229798822999,8.022093564870953
1691674097430836000,9.0308359375,-0.6295560864165425,17.705740870058534,5.145850730815529
1691674097440881000,9.040880859375,-0.750661130914092,18.54619800723195,2.25492236880362
1691674097450925800,9.05092578125,-1.0236983198493719,19.110273321217296,-0.4895020112991333
1691674097460971800,9.0609716796875,-1.3590072560414672,19.345563255560396,-2.760980962628126
1691674097471017000,9.071016845703125,-1.668374818508327,19.71178726223707,-5.099626155257225
1691674097481063000,9.08106298828125,-2.026175864754617,20.025009162044523,-7.784184387940168
1691674097491108000,9.091108154296874,-2.3482465491890907,19.677569350814817,-9.4049086897403
1691674097501153300,9.1011533203125,-2.743596697106957,19.27386580057144,-9.922497562360762
1691674097511199200,9.11119921875,-3.7236794548526406,18.581107992571592,-9.836455940198897
1691674097521244200,9.121244140625,-4.501057327778637,17.51308362426162,-9.286688553029299
1691674097531289000,9.1312890625,-4.946463884502649,16.637480354905126,-8.766845179480313
1691674097541335000,9.1413349609375,-5.348881486588716,15.867497852927446,-8.664726867264509
1691674097551380200,9.151380126953125,-5.636240630865097,14.990264936542511,-8.753408190280199
1691674097561425200,9.161425048828125,-5.274325719559192,14.861237574613094,-9.358632676255702
1691674097571471000,9.17147119140625,-5.032544085109233,14.715534972214698,-10.796715514838695
1691674097581516300,9.181516357421875,-4.911835638713836,13.512702320486307,-11.639829888522625
1691674097591562000,9.19156201171875,-5.02710569344759,11.65418106995821,-11.62961946015358
1691674097601607200,9.201607177734376,-5.592782597410679,9.635324296045303,-11.739022084158659
1691674097611652000,9.211652099609376,-6.380517029178142,7.420472656345367,-11.402993309259413
1691674097621698000,9.221697998046874,-7.156126138865948,4.787155950599908,-10.05150505054593
1691674097631743200,9.2317431640625,-7.696025627493858,2.5074171204477547,-9.27776991803646
1691674097641788200,9.2417880859375,-8.005226016700266,0.6167196934580803,-8.995933336573838
1691674097651834400,9.25183447265625,-8.189007882124185,-0.8832347871482372,-8.827157317101955
1691674097661879000,9.261879150390625,-8.326963815918564,-2.0324001460969447,-8.544545075091719
1691674097671924200,9.27192431640625,-8.21902658829093,-3.014265987867117,-8.304669566524028
1691674097681970200,9.28197021484375,-7.934266228336095,-3.593843991410732,-8.535400230127573
1691674097692015000,9.29201513671875,-7.880538145279884,-3.8308635260254142,-9.671183544933795
1691674097702061000,9.30206103515625,-7.717150248587131,-4.518429026079177,-10.623903956240415
1691674097712106200,9.312106201171876,-7.497326763445138,-5.733682767963409,-10.704793602466582
1691674097722151200,9.322151123046876,-7.560434084743261,-6.8765241845875975,-10.71462642969489
1691674097732197000,9.332197021484374,-7.7728651215463875,-7.951334852036833,-11.218437536853552
1691674097742242000,9.342241943359374,-7.964056970965862,-9.171209823980927,-11.480352443271874
1691674097752287200,9.352287353515624,-8.325491989800334,-10.519295580774545,-11.358117225700616
1691674097762333200,9.362333251953125,-8.809957175976038,-11.533374423885345,-11.460765114748478
1691674097772378000,9.372378173828125,-8.932638383749127,-11.89433539546728,-11.457676501083373
1691674097782423300,9.38242333984375,-8.695800050920248,-11.635415579211712,-11.205934613633156
1691674097792469200,9.39246923828125,-8.515228964236378,-10.92050322254896,-11.111648894739151
1691674097802514200,9.40251416015625,-8.340839781057834,-9.838200153517722,-11.29986494321823
1691674097812560100,9.41256005859375,-8.047475258886813,-8.340839781057834,-11.469135468208789
1691674097822605000,9.42260498046875,-7.756240734481811,-6.352802508300543,-11.721979763942956
1691674097832650200,9.432650146484375,-7.578033454319835,-3.9592759709268806,-12.27362229733467
1691674097842696200,9.4426962890625,-7.347692082294821,-1.43706167884171,-13.264121527415513
1691674097852741000,9.4527412109375,-6.988526177436113,1.1595271784871817,-15.02635214896798
1691674097862786000,9.4627861328125,-6.6170829748064275,3.2345810559183357,-16.99743477979302
1691674097872832000,9.47283203125,-6.173930626749992,4.335805683040618,-17.898246140164137
1691674097882877200,9.482877197265625,-5.790597664362192,5.139081967332959,-17.67984655034542
1691674097892922000,9.492922119140625,-5.410937253007292,5.966273964741826,-16.99123066445589
1691674097902968000,9.502968017578125,-4.877635262948274,6.7806263543218375,-16.120748975896834
1691674097913013200,9.51301318359375,-4.110358805058897,7.54805332659781,-15.168247175776958
1691674097923059200,9.52305908203125,-3.122349638228118,8.563440329697727,-14.140201766633986
1691674097933104000,9.533104248046875,-2.2798782386228442,10.019107340288162,-13.488248262709378
1691674097943149000,9.543149169921875,-1.455157892024517,11.689848595666884,-13.387469674664734
1691674097953195000,9.553195068359376,-0.5807378411032259,13.345112880450486,-13.003410736089943
1691674097963240200,9.563240234375,0.021759411865472793,14.341169744658469,-12.0618172834754
1691674097973285000,9.57328515625,0.5516460405230522,14.67694249897003,-10.978349846839905
1691674097983331300,9.583331298828124,1.0976982065618037,14.64335587118864,-9.564182721373438
1691674097993376300,9.593376220703124,1.6391139449715613,14.262254613375664,-7.811381022423506
1691674098003421200,9.603421142578124,2.1855295374952255,13.342097916543484,-6.286284501776099
1691674098013467100,9.613467041015625,2.567213125240803,12.471473604643345,-4.9953059490829705
1691674098023512000,9.623511962890625,2.669204011684656,11.767900972640513,-3.5106431456327436
1691674098033558000,9.63355810546875,2.620430336165428,11.17884319308996,-2.0824474948138
1691674098043603200,9.643603271484375,2.9621581994891164,11.021372996008395,-0.5942085864424705
1691674098053648100,9.653648193359375,3.5846085455536842,11.282953555905818,0.9965677363395691
1691674098063694300,9.6636943359375,4.038252477008104,11.51527295000553,2.57672972612679
1691674098073739000,9.673739013671875,4.142003943383694,11.686894422036408,4.219617344418168
1691674098083784200,9.6837841796875,4.091756103658676,12.02100830322504,6.349928998690843
1691674098093830100,9.693830078125,3.7562183271467684,12.25933658235073,8.686853358876705
1691674098103875000,9.703875,3.388711879444122,12.995446040821074,10.49798741980791
1691674098113920300,9.713920166015624,3.5421290017426013,13.88577107849121,12.227745512300729
1691674098123966200,9.72396630859375,3.6081963418900966,13.992493085110187,13.3540782771945
1691674098134011400,9.734011474609375,3.3807623817443844,13.691070344167947,14.344667523646354
1691674098144057000,9.74405712890625,2.9171090974509712,13.436428059101104,15.282889454001188
1691674098154102000,9.75410205078125,2.452072542105615,13.33746031987071,16.03653340011835
1691674098164147200,9.764147216796875,2.126014687731117,13.665578175514936,16.224977412134407
1691674098174193200,9.774193115234375,2.0405752692461014,13.831637337243556,16.396882961803673
1691674098184238000,9.784238037109375,2.309756805666536,13.643436486333608,16.914852358174322
1691674098194283300,9.794283203125,2.800015334421396,13.292926766139269,17.452673286962508
1691674098204329200,9.8043291015625,3.0758827783465383,13.026535591089726,17.851890047180653
1691674098214374100,9.8143740234375,3.524955748623609,12.751001324641704,18.291291518270967
1691674098224419000,9.824419189453126,3.779412155729532,12.592131782156228,18.421249439048765
1691674098234465000,9.834465087890624,3.6048914551258084,12.803935626971722,17.836905244016645
1691674098244510200,9.84451025390625,3.3246576326847075,12.984403253281116,16.70877332074642
1691674098254556200,9.85455615234375,2.792898195892572,13.09463472932577,15.199813695907592
1691674098264601300,9.864601318359375,2.2465679435648025,13.508110316520929,12.986211764007805
1691674098274646000,9.87464599609375,1.6913080964587628,14.22339442910552,10.031966821861266
1691674098284692000,9.88469189453125,1.4671394217193126,15.37781230175495,5.823268930864334
1691674098294737200,9.894737060546875,1.7116627560928463,16.400245131713152,1.0171768091261386
1691674098304782000,9.904781982421875,1.7499653064802287,16.552874318504333,-3.0651205613136288
1691674098314828000,9.914828125,1.7627321413338184,16.214557724928856,-5.762548796963691
1691674098324873200,9.924873291015626,1.598259664274752,15.214543647527695,-7.172573415797949
1691674098334918100,9.934918212890626,1.2311008609659968,14.274860412448644,-7.515991131904721
1691674098344964400,9.94496435546875,0.4712789568662643,13.667933798730372,-7.943795104181766
1691674098355009000,9.955009033203124,-0.5592956784933805,12.80748133675456,-8.53689719068706
1691674098365055000,9.965054931640625,-1.0656946101881564,12.212233470392226,-8.727940571546554
1691674098375100200,9.97510009765625,-1.421007785141468,11.786624377810954,-9.415749232706426
1691674098385145000,9.98514501953125,-1.8227800750613212,10.636056166326998,-9.538709257420896
1691674098395191300,9.99519140625,-2.1740268773585556,9.316213922721147,-8.988331044876574
1691674098405236200,10.005236328125,-2.4873557446718215,8.388805062803625,-8.698942440599202
1691674098415281200,10.01528125,-2.8290543819010256,7.521501419758796,-8.806994819039106
1691674098425327000,10.0253271484375,-3.1989974091008304,6.070040628686547,-8.423365504053235
1691674098435372000,10.0353720703125,-3.503594103904068,4.6140386870533225,-7.526524216356873
1691674098445417200,10.045417236328126,-3.936265389956534,3.327937385007739,-6.75693451308906
1691674098455463200,10.055463134765626,-4.400077371942997,2.161260334765911,-6.340308352908492
1691674098465508000,10.065508056640626,-4.685191075380146,1.0312655402332545,-5.983754676374793
1691674098475554300,10.07555419921875,-4.920699328649044,-0.21180852099061012,-5.5111973701357835
1691674098485599000,10.085598876953124,-5.2448973805010315,-1.434832896876335,-5.07152935706377
1691674098495644200,10.09564404296875,-5.5188645437628026,-2.558465755161643,-4.697498183767498
1691674098505690000,10.105690185546875,-5.661742151868343,-3.506474335515499,-4.449442583614587
1691674098515734800,10.11573486328125,-5.823210478675365,-4.412346486407518,-4.22918070705533
1691674098525780000,10.125780029296875,-6.112427233517169,-5.277003998857737,-4.23952236058861
1691674098535826000,10.135825927734375,-6.345187941643595,-5.930242866417765,-4.410497935931384
1691674098545871000,10.14587109375,-6.341077583715319,-6.062411448982358,-4.863240534631908
1691674098555916000,10.155916015625,-6.576516571140289,-6.200823309850692,-5.165106635427475
1691674098565962000,10.1659619140625,-6.85268329027295,-6.684663057604432,-5.44169596388638
1691674098576007200,10.176007080078126,-6.789339822131395,-7.138740704300999,-5.630557909053564
1691674098586053000,10.18605322265625,-6.686613607150316,-7.398820211985707,-5.875025421586632
1691674098596098000,10.19609814453125,-6.676169370025396,-7.612163687458634,-5.980205459460616
1691674098606143000,10.20614306640625,-6.719030022108554,-7.774248684859275,-6.072505557495355
1691674098616189000,10.21618896484375,-6.763024062135815,-7.465628141367435,-6.524433332681656
1691674098626234000,10.226234130859375,-6.630050592929124,-6.579161532691121,-7.155173368185758
1691674098636279000,10.236279052734375,-6.4837681448161595,-5.494418084770441,-7.7315552060365675
1691674098646325000,10.246324951171875,-6.344074427443743,-4.249295858845114,-8.523422792086004
1691674098656370000,10.256369873046875,-6.13859335590899,-2.6353064182579518,-9.702849433785676
1691674098666415900,10.266415771484375,-6.384518081513047,-0.9367325685799122,-10.945270584058761
1691674098676461000,10.2764609375,-6.9941785041093825,0.5846048917949199,-12.45542497164011
1691674098686506000,10.286506103515626,-7.01370971853137,2.511484808278084,-14.635209974133968
1691674098696552000,10.296552001953126,-6.826105664470791,4.293205143198371,-16.87839806600213
1691674098706597000,10.30659716796875,-6.843878052526712,4.331335259628296,-18.21199060254097
1691674098716642000,10.31664208984375,-6.787594439768791,3.4400171192675826,-18.263547771298885
1691674098726688000,10.32668798828125,-6.907779739072918,3.0961072357296944,-17.780486022180316
1691674098736733000,10.33673291015625,-7.10541126615107,2.882879495590925,-16.74377566054463
1691674098746778000,10.346778076171875,-7.025503032177686,2.795864059960842,-15.240610985720156
1691674098756824000,10.356823974609375,-6.760683051967621,3.5161768143624066,-13.954251324999332
1691674098766869000,10.366868896484375,-6.57440703164041,4.897758013522624,-13.043750929784775
1691674098776915200,10.376915283203125,-6.345736807698011,6.505067537954449,-12.166659467697142
1691674098786960100,10.386960205078125,-5.95736935827434,8.381400924026966,-11.20308916107416
1691674098797005000,10.397005126953125,-5.7765714770972725,10.241763418507576,-10.483239932531118
1691674098807051000,10.407051025390626,-5.460578943532705,11.024704770779609,-9.742526779657602
1691674098817096000,10.417095947265626,-4.7251852321162815,11.689369287717343,-9.059339348557591
1691674098827141000,10.42714111328125,-3.8975560123339292,12.48354748879671,-8.417810208013654
1691674098837187000,10.43718701171875,-3.0037203361943363,12.745323279005289,-7.6622198040038345
1691674098847232000,10.44723193359375,-1.571873031000048,12.945876246488094,-7.021775536087155
1691674098857277000,10.45727685546875,0.16989669406488536,13.460892638272046,-6.796814688056707
1691674098867323000,10.467322998046875,1.8369136682234704,13.63336049799919,-6.219495277094841
1691674098877368000,10.4773681640625,3.2507483468651768,13.55288820040226,-5.527181705731153
1691674098887414000,10.4874140625,4.175327244053781,13.761532119882107,-4.684925410181283
1691674098897459000,10.497458984375,4.462798908793926,13.763823445689678,-3.410728480941057
1691674098907504000,10.507504150390625,4.148059590160846,13.781170886331795,-2.2529817561298606
1691674098917550000,10.517550048828125,3.853210382390022,13.590759373635052,-1.250820145305991
1691674098927595300,10.52759521484375,3.7883705382108688,13.958508982443808,-0.19981997703313825
1691674098937640000,10.537639892578126,3.407388522863388,14.472882400149107,1.1268436370253563
1691674098947686000,10.547685791015626,2.8910347449958325,14.659720146012305,2.473564535206556
1691674098957731000,10.55773095703125,2.8528502680301666,15.377884782469271,3.6396611552119253
1691674098967777000,10.567777099609375,2.8335703980207443,16.027758557510374,4.634919562518596
1691674098977822000,10.577822021484375,2.687900528848171,16.538560546469686,5.298759903591871
1691674098987867100,10.5878671875,2.92184840093255,17.645039440858362,5.861077560254931
1691674098997913000,10.5979130859375,3.050668549852073,18.018033380061386,7.1481661197721955
1691674099007958000,10.6079580078125,2.8550691131234167,17.473304571580886,8.714600612980126
1691674099018003000,10.6180029296875,2.582652686434984,17.407080579566955,10.278915629816055
1691674099028049000,10.628048828125,2.486157474797964,17.590539788907765,11.513781250143051
1691674099038094000,10.638093994140625,2.5027120114967225,17.114721435046196,12.945183003526925
1691674099048139000,10.648138916015625,2.545149761992693,16.375999163728952,14.578408474981783
1691674099058185200,10.658185302734376,2.5826412882581353,16.06436365633011,15.551982289224862
1691674099068230000,10.66822998046875,2.6588541748449206,16.218870327430963,15.896477279174327
1691674099078275000,10.678275146484374,2.839836472678184,16.65891827973127,15.98921986027956
1691674099088321000,10.688321044921874,2.940821689210832,16.692317860507963,15.794372995483874
1691674099098366000,10.698365966796874,2.9771371574342247,16.63544388064146,15.249980871611832
1691674099108412000,10.708411865234375,3.0067560506284234,16.766783611166478,14.393706572103499
1691674099118457000,10.71845703125,2.9324259090483187,16.832861472707986,13.373650408148764
1691674099128502000,10.728501953125,2.7830186069130898,16.917088738924264,12.04034662542343
1691674099138548200,10.73854833984375,2.6309634206175803,17.068429639470576,10.200393297243117
1691674099148593000,10.748593017578125,2.273129641145468,16.953092949241398,8.379442775696516
1691674099158638000,10.75863818359375,1.7253152877397835,16.86784160067439,6.7382596232354635
1691674099168684000,10.76868408203125,1.2313887379966675,16.859086631810666,5.101967749947309
1691674099178729000,10.77872900390625,0.8600620013535022,16.850727968788146,3.2401018651664257
1691674099188775200,10.788775146484374,0.579548777449131,16.76573147176504,1.2879998291432857
1691674099198820000,10.798820068359374,0.539988335955143,16.752227847069502,-0.4661047690987587
1691674099208865000,10.808864990234374,0.4584337960794568,16.77630781083703,-1.9064824406206606
1691674099218911000,10.818910888671875,-0.009133739048242568,16.762080548042057,-3.2119442766964434
1691674099228956000,10.828955810546875,-0.4178165390089154,16.810538581740854,-4.0219291187167165
1691674099239001000,10.8390009765625,-0.7916027976334095,16.816789458829163,-4.57111139947474
1691674099249047000,10.849047119140625,-1.1308812219783664,16.97325077112913,-5.176857863497734
1691674099259092000,10.859092041015625,-1.4884253708541393,17.392148383373023,-5.872701362553238
1691674099269137200,10.86913720703125,-2.0079148163989187,17.4162084733963,-6.426861431723832
1691674099279182800,10.879182861328125,-2.4825094736844298,17.248623709535597,-6.853311651304364
1691674099289228000,10.88922802734375,-2.810977750201523,16.945644971323013,-7.179524550110101
1691674099299274000,10.89927392578125,-3.1435563846468924,16.358704330056906,-7.458022927060723
1691674099309319000,10.90931884765625,-3.5064953783035278,15.568822364866733,-7.553695716398954
1691674099319364000,10.919364013671874,-3.8639945189937945,14.63104584019184,-7.302692664617299
1691674099329410000,10.92941015625,-4.313503834861517,13.55704532008171,-7.009051079070567
1691674099339455200,10.939455322265625,-4.711014375683665,12.352897494101523,-6.533863424327969
1691674099349500000,10.9495,-5.125142873829603,11.203531059622764,-6.0160173620760435
1691674099359545900,10.9595458984375,-5.473135642766953,10.080385108071566,-5.397005758288502
1691674099369591000,10.969591064453125,-5.76458351766169,8.874987574291229,-4.820304186964035
1691674099379637000,10.979636962890625,-5.941372163197398,8.219504142674804,-4.582341234019398
1691674099389682200,10.98968212890625,-6.337524275147914,7.3838248874276875,-4.003983127659559
1691674099399727000,10.99972705078125,-6.772783239606023,6.496240672898292,-3.1813784580409523
1691674099409773000,11.00977294921875,-6.894471929210424,5.819031147164106,-2.206522202771902
1691674099419818000,11.01981787109375,-6.873525002771616,5.405697598788142,-1.5791542740494011
1691674099429863000,11.02986279296875,-6.882996595472097,5.273272411113977,-1.27420920419991
1691674099439908900,11.039908935546874,-6.993263142830133,5.273050292795896,-0.8984089754045009
1691674099449954000,11.0499541015625,-7.198114684289694,5.224378324085474,-0.5186556250691413
1691674099459999000,11.0599990234375,-7.478868731212615,5.204794502693415,-0.37449791402518745
1691674099470045200,11.070045166015625,-7.488781637939811,5.21871664506197,-0.3819248491555452
1691674099480090000,11.080090087890625,-7.383944714415073,5.206600675332546,-0.4864531451225281
1691674099490135000,11.090135009765625,-7.729391890522837,5.093161927679181,-0.41737610176503653
1691674099500181000,11.100180908203125,-8.065320127657055,5.026327110290527,-0.30514614537954327
1691674099510226000,11.110225830078125,-8.15229640032053,4.931009125739336,-0.37848201522529124
1691674099520272100,11.120272216796875,-8.153033482423425,4.83284568862915,-0.5344441458314657
1691674099530317000,11.130317138671876,-8.29265822621286,4.734505725908279,-0.6998439668685198
1691674099540362000,11.140362060546876,-8.487084819769859,4.702179911842942,-0.9164362150043248
1691674099550408000,11.150407958984376,-8.580382696670293,5.323030421495437,-1.2786772895246743
1691674099560452900,11.160452880859374,-8.579066353374719,6.8150915185034275,-1.8626193334966896
1691674099570498000,11.170498046875,-9.125659202161431,6.911437092536687,-2.1824702960550786
1691674099580544000,11.1805439453125,-9.690324883255363,5.537714790183306,-2.061303584498167
1691674099590589000,11.1905888671875,-9.765677938142419,4.734454872503877,-1.777594779422879
1691674099600634000,11.200634033203125,-9.815314952492713,4.384906106296182,-1.797744418004155
1691674099610679800,11.2106796875,-10.302043991947173,4.064353425209224,-1.960805566960573
1691674099620725000,11.22072509765625,-10.662439146339892,3.6311695134595032,-1.8194360253304243
1691674099630771000,11.23077099609375,-10.647730237507819,3.2922602146878837,-1.6379589297175405
1691674099640815900,11.24081591796875,-10.603804586541653,3.200009216491878,-1.3852958357691765
1691674099650861000,11.250861083984375,-10.590348892641067,3.184570532080531,-1.103702999934554
1691674099660907000,11.260906982421876,-10.478083280420302,3.174600634469092,-0.9525047227293253
1691674099670952200,11.2709521484375,-10.303984604620933,3.3293715094640848,-1.0585089364677667
1691674099680996900,11.280996826171876,-10.13464861317873,3.568030043457448,-1.3814958589643238
1691674099691042800,11.291042724609374,-9.841323838496207,3.6973558038115497,-1.6150532704263925
1691674099701088000,11.301087890625,-9.369020214757322,3.738367320896685,-1.6126508854597805
1691674099711134000,11.311134033203125,-8.779804614296555,3.577189209207892,-1.316543202060461
1691674099721179100,11.32117919921875,-8.143000748708843,3.27188261256963,-1.0705138470381497
1691674099731224000,11.33122412109375,-7.44295921344161,2.90625803309083,-0.9096142600297927
1691674099741270000,11.34127001953125,-6.663743603694439,2.5125942308247087,-0.790609694942832
1691674099751315000,11.35131494140625,-5.96428951292634,2.254804587642848,-0.8700614173203707
1691674099761360000,11.36135986328125,-5.266630488881469,2.2414906403005124,-0.9944418302267789
1691674099771405800,11.37140576171875,-4.497840411558747,2.1246832929968833,-1.1845955687701701
1691674099781451000,11.381450927734376,-3.849480840472877,1.9818734894305468,-1.2410375869601964
1691674099791496000,11.391495849609376,-3.12255188280195,2.1882056248366832,-1.7052034969508647
1691674099801542100,11.401542236328124,-2.704015505085885,2.3397815031826497,-2.4664339526742696
1691674099811587000,11.411587158203124,-2.4188709681190548,2.090054462686181,-2.7445436225682496
1691674099821633000,11.421633056640625,-2.102400441779196,1.8153794434159993,-2.542005618748069
1691674099831678000,11.431677978515625,-2.000648770918697,1.828655396835506,-2.428439445322752
1691674099841723000,11.441722900390625,-1.9060908109545707,1.9909604667276142,-2.420324527928233
1691674099851769000,11.45176904296875,-1.5221230577945708,2.2259499568194148,-2.630555424338579
1691674099861814000,11.46181396484375,-0.8707272608179598,2.4886539677888155,-3.0674808607041832
1691674099871859200,11.471859130859375,0.32197913369350134,2.449936991381645,-3.5882384264886378
1691674099881905200,11.4819052734375,1.7912556405067444,2.000508047273755,-4.0071804623961444
1691674099891949800,11.49194970703125,3.0817046163678166,1.3466250365912913,-4.146334081542491
1691674099901995000,11.5019951171875,3.65541168205142,0.7520213133513927,-3.7601235178917642
1691674099912041000,11.512041015625,3.736826228934526,0.5273585714846849,-3.396478421792388
1691674099922086000,11.5220859375,3.6166917830348013,0.33776217456310986,-2.858638203781843
1691674099932132000,11.532132080078124,3.427356959658861,-0.32038580008745193,-2.118314927008748
1691674099942177000,11.542177001953124,3.3553105451017617,-0.8648644331991672,-1.3866536801189184
1691674099952222000,11.552221923828125,3.630845980593562,-0.9241846371740102,-1.0172399374902248
1691674099962268000,11.562267822265625,4.839643093684315,-0.017588263660669325,-1.6641384961128234
1691674099972312800,11.572312744140625,6.410531643691659,0.7840177493318915,-2.3214450515031815
1691674099982358000,11.58235791015625,8.06954446735382,0.5228390482336283,-3.325029388606548
1691674099992404000,11.592404052734375,9.90381741181016,0.11292729099988937,-3.886412979289889
1691674100002449200,11.60244921875,10.55649338479042,-0.4236223026782274,-3.612203239443898
1691674100012495000,11.6124951171875,10.274275695055723,-0.11003361538499593,-2.96289703515768
1691674100022540000,11.6225400390625,10.3068429166615,0.7142056696981192,-1.465019945347309
1691674100032585000,11.6325849609375,9.73583400402069,1.1771613271161914,-0.02688859144747257
1691674100042631000,11.642630859375,8.554678931093216,2.1128265587255357,0.5084340907841921
1691674100052675800,11.65267578125,7.508190687286853,2.9997514325633645,0.6215536894857883
1691674100062721000,11.662720947265624,6.52435033057332,3.4250390381053086,1.009773839393258
1691674100072767000,11.67276708984375,5.556998167324066,4.552048094825446,1.4392314240962265
1691674100082812200,11.682812255859375,4.4966251905500885,6.177915312471986,1.5267770210802554
1691674100092858000,11.692858154296875,3.2759681283175945,7.239995093163848,1.352701726156473
1691674100102902800,11.70290283203125,2.4984300963938235,7.598571215435862,1.2668676092654465
1691674100112948000,11.712947998046875,2.0107517933905124,7.592206356579065,1.0081266567081213
1691674100122994000,11.722993896484375,1.479197816042602,7.259269702476263,1.186007773655653
1691674100133039000,11.7330390625,1.1127834744255989,6.814702226924896,1.2706295921474695
1691674100143084000,11.743083984375,0.8420106502257287,6.246114988473058,1.3978794230103493
1691674100153130000,11.7531298828125,0.6584697539508342,5.292043162557483,1.8211667946457861
1691674100163175000,11.7631748046875,0.5545126820005476,4.38264312980026,2.2940046713918445
1691674100173219800,11.7732197265625,0.41885099662318825,3.8163197446271777,2.6904139729738232
1691674100183266000,11.78326611328125,0.2660615047037601,3.517427691206336,2.8916327108889814
1691674100193311000,11.79331103515625,0.10289221919775009,3.22681451357007,3.014752310079336
1691674100203356000,11.80335595703125,-0.007727379381656646,3.074407737357914,2.994797317287326
1691674100213402000,11.813402099609375,-0.07330006788000464,2.9478724845051762,3.1764544456422326
1691674100223447000,11.823447021484375,-0.12310147901177405,2.6638874928370115,3.45167833096683
1691674100233493000,11.833492919921875,-0.14208090476989746,2.4764342454239725,3.5492063927829265
1691674100243538000,11.843537841796875,-0.3161817725263536,2.1059452747792005,3.892871946170926
1691674100253582800,11.853582763671875,-0.42772389277815814,1.7551356948554515,4.3034389524430035
1691674100263629000,11.863629150390626,-0.6059292732439935,1.5470178450763226,4.600246893066168
1691674100273674000,11.873674072265626,-0.852194409783557,1.3213923956573008,4.851391983667016
1691674100283719200,11.88371923828125,-1.0367303084451704,1.1535206315487623,5.011566179010272
1691674100293765000,11.89376513671875,-1.178438288249448,1.030740347315371,5.127588513416051
1691674100303809800,11.903809814453124,-1.3116357024051248,1.032228540046513,5.15851264398992
1691674100313856000,11.91385595703125,-1.3834909783042966,1.4389204584509134,4.957456987681985
1691674100323901000,11.92390087890625,-1.458659324274212,2.223046344332397,4.445352683952451
1691674100333946000,11.933946044921875,-1.5350586733438074,3.016837007398903,3.8155402846872803
1691674100343992000,11.943991943359375,-1.745249237743765,3.4202725543558596,3.2492589850902553
1691674100354037000,11.954037109375,-1.8894987187243997,3.826492763595283,2.7055238638222217
1691674100364082200,11.964082275390625,-1.9976213859215377,4.061734767143428,2.4185721313029527
1691674100374127900,11.9741279296875,-2.225232894591242,4.0419785117939115,2.1699200265616176
1691674100384172800,11.9841728515625,-2.2987523043103515,4.209794454061985,1.8043600367516277
1691674100394218000,11.994218017578126,-2.451580374674499,4.158353020638227,1.424334883737564
1691674100404264000,12.004263916015624,-2.3878131281629202,4.324509213000535,1.0533394248753785
1691674100414309000,12.01430908203125,-2.6633506094813346,4.23291054123342,1.0568740287423133
1691674100424355000,12.02435498046875,-3.216645293994248,3.867898832955956,1.5085802701324225
1691674100434400000,12.03439990234375,-3.3727100081920622,3.7274095812916754,1.7465052291542291
1691674100444445000,12.04444482421875,-3.548427809625864,3.5734546988546847,1.7852035008609295
1691674100454491000,12.054490966796875,-3.7897359813451765,3.467936807328462,1.7088567587614059
1691674100464536000,12.0645361328125,-4.055217348073422,3.3616596218675374,1.4972335312098264
1691674100474581000,12.0745810546875,-4.193535685439407,3.340602220791578,1.273264032304287
1691674100484627000,12.084626953125,-4.26403691638112,3.3927339745670557,0.9947206471681594
1691674100494672000,12.094671875,-4.160732024729252,3.9226346317499874,0.2642389654517174
1691674100504716800,12.104716796875,-4.2265284389808775,4.617444111582636,-0.7761556376546621
1691674100514762800,12.1147626953125,-4.4774867748379705,4.6385687326759095,-1.3640344365537165
1691674100524808000,12.124807861328126,-4.443779735547304,4.330064509040117,-1.6287854431807993
1691674100534854000,12.13485400390625,-4.347639036436378,4.055370785069465,-1.872255176848173
1691674100544899000,12.144899169921874,-4.3015459783032535,3.67644920938313,-2.030792126378417
1691674100554943700,12.15494384765625,-4.27892907282561,3.0441853253126143,-1.927452163413167
1691674100564989700,12.16498974609375,-4.201731266854703,2.425170214393735,-1.9991478648364542
1691674100575035000,12.175034912109375,-4.192587883195281,1.7546183929830788,-2.1642308750092982
1691674100585079800,12.185079833984375,-4.146099396003782,1.0067068530380725,-2.1016993077725172
1691674100595126000,12.1951259765625,-3.9796120719909664,0.33170039030611514,-2.03574711843729
1691674100605171000,12.2051708984375,-3.8112139459207652,-0.1554723012626171,-2.2273586545735595
1691674100615216000,12.215216064453125,-3.7307197287529705,-0.7472755801290273,-2.4300644161760805
1691674100625261800,12.22526171875,-3.6325010543242096,-1.4234586854249238,-2.43735808031559
1691674100635306800,12.235306640625,-3.4659634614288803,-1.823438831230998,-2.5371646084576844
1691674100645353000,12.24535302734375,-3.3048680595874784,-1.8900942003995178,-2.70289702244997
1691674100655398000,12.25539794921875,-3.1811621849417686,-1.6956015558689832,-2.7676135325103997
1691674100665442800,12.26544287109375,-3.1145185062110423,-1.3668150071829557,-2.7879794441908596
1691674100675489000,12.275489013671875,-2.9349501668289304,-0.6666711805850267,-2.939631894904375
1691674100685534000,12.285533935546875,-2.6056346258327365,0.1246504620194435,-3.2345307870358226
1691674100695579000,12.295578857421875,-2.2328972917392846,0.6492892531514167,-3.566915067952871
1691674100705624800,12.305624755859375,-1.996757170307636,0.85352003236413,-3.7959222687646745
1691674100715669800,12.315669677734375,-1.9932664055824278,0.8654173909068107,-3.9293218544289465
1691674100725716000,12.325716064453125,-1.9627394576326012,0.7816542350709438,-3.995146325731277
1691674100735761000,12.335760986328125,-1.906455552613735,0.5018400993466376,-3.8165018231958148
1691674100745806000,12.34580615234375,-2.006381030960381,-0.1251385377973318,-3.337793593111634
1691674100755852000,12.35585205078125,-2.038695446848869,-0.8226040850967168,-2.729620486463606
1691674100765896700,12.365896728515626,-2.1226297214679417,-1.469160113891959,-2.0894228867843747
1691674100775942000,12.37594189453125,-2.135325683042407,-2.026135240483284,-1.5791390764802693
1691674100785987800,12.38598779296875,-1.9574761302769184,-2.3341139789402483,-1.3496177886664866
1691674100796033000,12.396032958984375,-1.7372028555408119,-2.4129455235928297,-1.1130892524391411
1691674100806078000,12.406077880859375,-1.4584455353930592,-2.4381974537491797,-0.8670920461207627
1691674100816124000,12.4161240234375,-1.1873787697479128,-2.3079981254309416,-0.8363233983695506
1691674100826169000,12.426169189453125,-1.0135723548933864,-1.9436025032252071,-0.90876144259274
1691674100836215000,12.436215087890625,-0.9774468562841415,-1.5645838969051837,-0.9754203188925981
1691674100846259700,12.446259765625,-1.117170092011988,-1.1821382387459278,-1.1065700798034668
1691674100856305000,12.456304931640625,-1.1190661348916588,-0.6384814434111118,-1.434273509427905
1691674100866350800,12.466350830078126,-0.9252768163248896,-0.166904964902997,-1.6956752056270836
1691674100876396000,12.47639599609375,-0.44578298882097,0.24620938776433465,-1.9079659571766852
1691674100886441000,12.48644091796875,0.18313173095211385,0.37598143058121203,-2.2073288429796696
1691674100896487000,12.49648681640625,0.3821520820401609,0.0938724619179964,-2.144125075569749
1691674100906531800,12.50653173828125,0.2764122183263302,-0.19003566512167452,-1.889318539851904
1691674100916577800,12.516577880859375,0.3301914470478892,-0.3782482064694166,-1.7802987776845693
1691674100926623000,12.526623046875,0.4404164933517575,-0.6719599346429109,-1.4798796608269214
1691674100936668000,12.53666796875,0.5029705646812915,-0.9078928430646658,-1.3949638278245926
1691674100946713900,12.5467138671875,0.7623743650615215,-0.9619161096751689,-1.4813935725212097
1691674100956759000,12.556759033203125,1.077207207196951,-1.1062643748551606,-1.4370447277069092
1691674100966803700,12.5668037109375,1.0785001696169376,-1.322067518439889,-1.4051836085438727
1691674100976850000,12.576849853515625,1.0717055410407483,-1.4459201080799102,-1.264998308262229
1691674100986894800,12.586894775390626,1.1542588826954363,-1.5269184753775595,-1.224075930765271
1691674100996939800,12.596939697265626,1.1170470501542091,-1.5932809990793466,-1.2777765412926674
1691674101006986000,12.606986083984374,1.0731669918954372,-1.5511714576244353,-1.3083622336924075
1691674101017031000,12.617031005859374,1.196684650492668,-1.4025690421313046,-1.2456401123195886
1691674101027076900,12.627076904296874,1.2682358288787305,-1.1683061127483845,-1.2646259678184986
1691674101037122000,12.6371220703125,1.3133948210321367,-0.9115297382622957,-1.3761761252462863
1691674101047166700,12.647166748046875,1.4295149167239665,-0.7380114926993846,-1.454266496142745
1691674101057213000,12.657212890625,1.4052560892581938,-0.7129121227562427,-1.4558394445478915
1691674101067257900,12.6672578125,1.392714441462606,-0.4852215575009584,-1.33909288752079
1691674101077303000,12.677302978515625,1.2901286578655242,-0.16307985365688799,-1.219699030855298
1691674101087349000,12.687348876953125,1.1092656755629926,-0.04652618885338306,-1.0523685340166091
1691674101097394000,12.697393798828125,1.0849297642730176,0.05361293224394321,-0.9578227028816938
1691674101107439900,12.70743994140625,1.0722492925286293,0.06734568952023982,-0.9338251567006111
1691674101117484800,12.71748486328125,1.0465767988726495,0.02184358301758766,-0.9079331750750541
1691674101127530000,12.727530029296876,1.0548621043980122,-0.07033902611732483,-0.8903776446402072
1691674101137576000,12.737575927734374,0.9653170041598379,-0.21012159081697462,-0.9136205730617046
1691674101147620900,12.747620849609374,0.8368892155587673,-0.23430326139330862,-0.7708277206301689
1691674101157666000,12.757666015625,0.8254246954753994,-0.2094213335931301,-0.5895645600289106
1691674101167712000,12.7677119140625,0.7246234572075307,-0.24403204372525214,-0.4973065475702286
1691674101177756700,12.777756591796875,0.5794529158592224,-0.16026771884560584,-0.45068332808315753
1691674101187801900,12.7878017578125,0.6179916130900382,0.003681318861246109,-0.37915363087654114
1691674101197847800,12.797847900390625,0.6790821877382696,0.09746084179878234,-0.24171382991075516
