time,seconds_elapsed,z,y,x
1691674007031772000,0.02977197265625,0.9662117610424756,-0.49384530120044945,-0.2618069159992039
1691674007041816800,0.03981689453125,1.527292569386959,-0.46859103295654053,-0.42896015657484526
1691674007051861800,0.04986181640625,1.6053981378525495,-0.19092004674077032,-0.38376200145483014
1691674007061906700,0.05990673828125,1.5247288563787935,0.014173194520175457,-0.2940599570892751
1691674007071952000,0.069951904296875,1.0961556532949208,0.22145634704083203,-0.25678258503116663
1691674007081997800,0.079997802734375,0.5401788900911808,0.9595376901060342,-0.3890053089357912
1691674007092043000,0.09004296875,0.0031640169888734818,1.1308318298786877,0.167123649154976
1691674007102088000,0.100087890625,-0.9505734624058008,0.8436731766104698,0.7108269870452583
1691674007112132900,0.1101328125,-1.4365233341813086,0.46526071949005127,0.3644879035990685
1691674007122177800,0.120177734375,-0.8804238213807344,0.14706249257475137,0.7021764284040779
1691674007132223000,0.130222900390625,0.14131576561629772,0.12037760700583457,0.6588055617764592
1691674007142269000,0.14026904296875,1.1328951921492814,0.2866927893221378,0.3587541091874242
1691674007152313900,0.15031396484375,1.4857149428516625,0.3078413758128881,0.04635989237576723
1691674007162358800,0.16035888671875,1.0267226361066102,0.2266962935209274,-0.3670361998423934
1691674007172403700,0.17040380859375,0.10080956770479678,0.24884353566020725,-0.4629442592412233
1691674007182449000,0.180448974609375,-0.2176654303252697,0.21191694980114698,0.06888648922145366
1691674007192494800,0.190494873046875,-0.34185295100808144,-0.31257600311934947,0.5879857664048671
1691674007202540000,0.2005400390625,-0.6589169131964445,-1.058997012245655,0.3592584054477513
1691674007212585000,0.2105849609375,-0.9575409633308648,-1.229693478386104,-0.2556194595359266
1691674007222630000,0.2206298828125,-0.8997966303706169,-1.1705319721043108,-0.20747809057086705
1691674007232674800,0.2306748046875,-1.3130378242880105,-0.7980746239960194,0.3976576942078769
1691674007242720800,0.240720703125,-0.9506675704300404,1.1164303795605897,2.972984129408002
1691674007252766000,0.250765869140625,1.5656658469229936,1.6146461509302257,3.0508970979109407
1691674007262811000,0.260810791015625,1.262435764297843,-0.9420341821193694,0.4673223281949758
1691674007272855800,0.270855712890625,1.4617834476441145,-2.436330490833521,-1.1442223495885728
1691674007282900700,0.280900634765625,1.764241376852989,-1.7616066444352267,-0.9554296702653169
1691674007292946000,0.29094580078125,2.563608963268995,-0.38322687166482206,0.8417027533203363
1691674007302992000,0.300991943359375,2.7477204990386963,-0.2616688227027654,1.6684123740397392
1691674007313036800,0.311036865234375,1.7639257350325583,-0.7320844407379626,0.26860812044665217
1691674007323082000,0.32108203125,0.6969669501274823,-1.5371034770444034,-2.08859228117913
1691674007333126700,0.331126708984375,0.37505262529850003,-1.169795182262361,-2.4654431880712506
1691674007343171800,0.341171875,1.5054431411504745,-0.46795565766245123,-0.7621895100139081
1691674007353216800,0.351216796875,2.782952555939555,-0.09674041856974362,0.360334071855247
1691674007363263000,0.361262939453125,3.205857650259137,-0.034651334403455254,0.1753799477815628
1691674007373308000,0.371307861328125,2.178325451335311,-0.35339170537143944,-0.5067494986981154
1691674007383352800,0.381352783203125,1.222168051317334,-0.5969786356776953,-0.7268624683059751
1691674007393397800,0.391397705078125,0.535471150791645,-0.554861787699163,-0.34379341755136844
1691674007403443000,0.40144287109375,-0.6546043106943369,-0.2547927994534373,0.5817652844548225
1691674007413489000,0.411489013671875,2.752531698712706,0.30341771415174007,1.25085024818331
1691674007423533800,0.421533935546875,2.5299580380797386,-0.3188517223879695,0.6880173354744911
1691674007433578800,0.431578857421875,2.154043242993951,-1.3998226660326123,-1.4709648252263665
1691674007443623700,0.441623779296875,2.1574469139575956,-1.459331670577824,-2.2715274666458365
1691674007453668900,0.4516689453125,1.975483496132493,0.10218787032067775,-1.4348182838290928
1691674007463713800,0.4617138671875,0.6096884796470403,0.159519530826807,-1.1532706023104489
1691674007473760000,0.471760009765625,-1.0678723926186562,0.018163433200120926,-1.0473534823335706
1691674007483805000,0.481804931640625,0.20891981381177901,0.4657531791821122,0.5618417097143829
1691674007493849900,0.491849853515625,0.6813011789619923,0.48638417153954505,0.4531118704043329
1691674007503894800,0.501894775390625,1.1282751311331987,0.5133531347468495,-0.032383389471471305
1691674007513940000,0.51193994140625,0.8369798164516687,0.35061464187353847,0.17357289835959672
1691674007523986000,0.52198583984375,-0.46356560600996016,0.5639572405636311,0.8610055658139288
1691674007534030800,0.53203076171875,-0.8800783689439297,0.8691764511793851,1.08303693626374
1691674007544075800,0.54207568359375,-0.4676023141801357,0.910137991642952,0.6262834944866598
1691674007554120700,0.55212060546875,0.44318800389170643,0.876746594172716,0.4043611373692751
1691674007564166000,0.562165771484375,1.3600503353536129,0.8390396715909242,-0.003780395321547985
1691674007574211800,0.5722119140625,1.9136738134294746,0.6515989913985133,-0.8917189762465655
1691674007584256800,0.5822568359375,2.11001179356575,0.8534457980841398,-0.8970221972212195
1691674007594302000,0.592302001953125,2.35373111808002,1.678087526488304,0.1980164347425103
1691674007604347000,0.602346923828125,3.242520032224059,2.669524329680204,1.2752578364700078
1691674007614391800,0.612391845703125,4.612372799667716,3.120803870090842,0.5125374344497918
1691674007624436700,0.622436767578125,5.82618627961576,2.6858149547457693,-1.7152089042671024
1691674007634483000,0.63248291015625,6.853842397180199,2.061740222349763,-3.2632930634006856
1691674007644527900,0.64252783203125,6.97310765902996,1.6764193010151385,-4.194458937764168
1691674007654572800,0.65257275390625,6.687507925641536,1.7338684504210948,-3.6211195363491773
1691674007664617700,0.66261767578125,5.570486594450474,2.0482851129710675,-2.3158310110136866
1691674007674663000,0.672662841796875,3.2110172249794005,2.569047939452529,-2.0467986738055943
1691674007684708900,0.682708984375,2.6120050376474855,2.9915128887891766,-2.0100094505906103
1691674007694753800,0.69275390625,1.8111627025038002,3.938815951222181,-2.1523370235979558
1691674007704799000,0.702799072265625,1.293928050148487,5.2783501527696846,-2.327113744789362
1691674007714843600,0.71284375,2.2365467541575432,6.129180215397477,-2.1181740572333334
1691674007724888800,0.722888916015625,3.2642239145100116,6.181227798020839,-2.3643805223882195
1691674007734934800,0.732934814453125,2.7383611345410346,5.920799915289878,-2.270189496040344
1691674007744980000,0.74297998046875,1.6498706090465187,5.785668975788354,-1.2055068393737076
1691674007755025000,0.75302490234375,0.5886120816096663,5.765410616135597,-0.4899813192486763
1691674007765069800,0.76306982421875,0.4896183311551809,5.853575221800804,0.20253508121073244
1691674007775114800,0.77311474609375,0.9143044636726378,5.918880345404148,0.710073099938035
1691674007785160000,0.783159912109375,1.0006944608807564,5.25855181184411,0.16099135694503783
1691674007795206000,0.793205810546875,1.6145874064803123,5.389695143014192,0.11445640026330947
1691674007805250800,0.803250732421875,2.2488512321963907,6.00196253323853,0.38167584283053874
1691674007815296000,0.8132958984375,2.7501094400018453,6.415897554638981,0.5631710586220026
1691674007825340700,0.823340576171875,2.953904165884852,6.904246304249763,1.3469143749266863
1691674007835385900,0.8333857421875,2.093337137618661,7.320828040766716,2.619839384534955
1691674007845431800,0.843431884765625,0.7137702008903026,7.476717690658569,3.5646336790174242
1691674007855476700,0.853476806640625,-0.40150867054760453,7.756013355466723,4.782282207083702
1691674007865522000,0.86352197265625,-1.6005337466865777,8.122748234274983,6.346202671644091
1691674007875566800,0.87356689453125,-2.3128344595462083,8.386629472330211,7.584771822664141
1691674007885611800,0.88361181640625,-2.4943705918699504,8.730144803592562,8.698682912880182
1691674007895656700,0.89365673828125,-2.70806302691102,8.966033288350701,9.578364391461013
1691674007905703000,0.903702880859375,-2.4682114837408062,8.588570679301023,10.248165102243423
1691674007915747800,0.913747802734375,-1.9195605333805084,7.957035694026946,10.651817214560507
1691674007925793000,0.92379296875,-1.6778011107623576,7.604138786435127,11.224376279252766
1691674007935837700,0.933837646484375,-1.6868319739580153,7.384060449749231,11.992726796114445
1691674007945883000,0.9438828125,-1.7898644784092903,7.013749466019869,12.742609928393364
1691674007955928800,0.9539287109375,-1.8475111962139605,6.49516164548993,13.475969795894622
1691674007965973800,0.963973876953125,-2.2402900323390957,5.688012903678417,14.072006766808032
1691674007976019000,0.97401904296875,-2.9037387437462807,4.335979870563746,14.061562529683112
1691674007986063600,0.984063720703125,-3.0989573644638058,2.5512451562583447,13.610638963103293
1691674007996108800,0.99410888671875,-3.085433866024017,0.665671063631773,12.897642669194935
1691674008006153700,1.00415380859375,-2.7983354185104368,-1.083750929751992,12.019659226703643
1691674008016200000,1.014199951171875,-2.415505144947767,-2.5659528960466385,11.09704753793478
1691674008026244900,1.024244873046875,-1.7596575561940668,-3.488734096163511,10.551017583727836
1691674008036290000,1.0342900390625,-1.4298960249960422,-4.0398844621241095,9.592437340477108
1691674008046334700,1.044334716796875,-1.4178209717988968,-4.45853949778378,8.21578015371561
1691674008056380000,1.0543798828125,-1.2017840194582938,-4.347448774561285,7.424919114360213
1691674008066425900,1.06442578125,-1.1256862836837769,-3.7382618146955964,7.0974138376563785
1691674008076470800,1.074470703125,-1.1729495546400546,-3.1904777102977038,6.705840870189666
1691674008086516000,1.084515869140625,-1.1996212884664534,-2.8791373864531513,6.214110661447048
1691674008096560600,1.094560546875,-1.1617688199341296,-2.8009651824921367,5.594875185775757
1691674008106605800,1.104605712890625,-0.9993769485414028,-2.984063741827011,4.903924134936928
1691674008116651800,1.11465185546875,-0.7679611522179096,-3.240057441502809,4.248771542710066
1691674008126696700,1.12469677734375,-0.3823661631822586,-3.2579449803709983,3.787843883988261
1691674008136742000,1.134741943359375,-0.07464519887864589,-3.085655984342098,3.3541765726357697
1691674008146786800,1.144786865234375,0.2486089231867343,-3.024952217054367,2.594861010622978
1691674008156831700,1.154831787109375,0.6570499502807855,-2.7469916002422567,2.1016297496676444
1691674008166876700,1.164876708984375,0.7868810298085213,-2.018469820421934,1.8268021701842545
1691674008176923000,1.1749228515625,0.5201549237161874,-1.5859388196229933,1.3415075474470852
1691674008186967800,1.1849677734375,0.4131359799772501,-1.7728712580323218,0.8784224184304475
1691674008197013000,1.195012939453125,0.3790057468384504,-2.186392437934875,0.5659440304666757
1691674008207057700,1.2050576171875,0.30499080868735906,-2.4758038385659455,0.3148001089096069
1691674008217102800,1.215102783203125,0.5863650333352387,-2.8794004213035107,0.0414221437126398
1691674008227148800,1.225148681640625,1.3866180242836474,-3.437670263880491,0.0031879823863506314
1691674008237193700,1.23519384765625,2.0896810993291437,-3.9358495026320215,0.263102070376277
1691674008247239000,1.245239013671875,2.679313902288675,-4.1253287029147145,0.9225298557043075
1691674008257283800,1.255283935546875,3.156068660217523,-3.936215997856855,1.8034037589401006
1691674008267328800,1.265328857421875,3.5002941855758425,-3.8552170460373163,2.736980493837595
1691674008277374700,1.275374755859375,3.760515732079744,-3.772873109349608,3.7782191465526815
1691674008287420000,1.285419921875,3.3716835877537727,-3.771971192073822,4.314284463845193
1691674008297464800,1.29546484375,2.846976992082596,-4.013647612583637,4.556860171282291
1691674008307510000,1.305510009765625,2.385004792743921,-4.525401203179359,4.444014713346958
1691674008317554700,1.3155546875,2.026588975600153,-5.093859262293577,4.458282015891373
1691674008327599900,1.325599853515625,1.5667146253235638,-5.489693978857994,4.554091875612736
1691674008337645800,1.335645751953125,1.1853776590585707,-5.890100825643539,4.668377887745201
1691674008347690800,1.345690673828125,1.0724283023573458,-6.278215177088976,4.901289694780111
1691674008357736000,1.35573583984375,0.8935260256685316,-6.395762529104948,5.183117508414387
1691674008367780900,1.36578076171875,0.4671056167043745,-6.155541568100452,5.564240393537283
1691674008377825800,1.37582568359375,-0.3003388912282884,-5.509029962968826,5.7750815308004615
1691674008387871700,1.385871826171875,-1.060417254307121,-5.080464943191409,5.52273057154119
1691674008397916700,1.395916748046875,-1.3338754451334476,-4.97177017519474,5.057347686976194
1691674008407961900,1.4059619140625,-1.0127385344177484,-4.912666828840971,4.635179090237617
1691674008418006800,1.4160068359375,-0.48380336126610635,-4.811814591038226,4.265278440874814
1691674008428052000,1.426052001953125,0.034692397066205735,-4.632027932730317,3.7734751668959854
1691674008438098000,1.436097900390625,0.6885112564712762,-4.3767970341205595,3.3998429297894237
1691674008448143000,1.44614306640625,1.4021756588995455,-4.081163982495665,3.1015117251217363
1691674008458188000,1.45618798828125,2.0549903096981343,-3.769638365212083,3.0008722532868384
1691674008468233000,1.46623291015625,2.405604513180256,-3.2689924440860745,3.2896237287044525
1691674008478278000,1.47627783203125,2.1642316056616604,-2.6483283969163893,3.751194361504912
1691674008488323800,1.48632373046875,1.5516820374950766,-2.174790847468376,4.117449932363629
1691674008498369000,1.496369140625,0.6458301256734877,-2.1301567559719086,4.024093603274226
1691674008508414000,1.5064140625,-0.2068505332570523,-2.3225492133527994,3.7672067541509864
1691674008518459000,1.516458984375,-0.5453185180019587,-2.547359839257598,3.65350964782238
1691674008528503800,1.52650390625,-0.6061602324556559,-2.8343098182111977,3.5063644454002376
1691674008538550000,1.536550048828125,-0.42348128677234054,-3.126149322772026,3.386909213936329
1691674008548595000,1.546594970703125,0.11911343228891491,-3.129394588303566,3.5579227832019327
1691674008558640000,1.55664013671875,0.745426152870059,-2.7926106111228464,3.8841251606136558
1691674008568685000,1.56668505859375,1.4034592689692973,-1.9921856246083973,4.820505847015976
1691674008578730000,1.57672998046875,1.518116744762659,-1.0106588055342436,5.680135886693001
1691674008588775000,1.58677490234375,1.129985953639075,-0.36041619718074797,6.069646660932898
1691674008598820900,1.59682080078125,0.6189853003025054,0.005595043528079986,6.251292683371902
1691674008608866000,1.606865966796875,-0.0340892800739035,0.26342881811261176,6.206987093177437
1691674008618911000,1.616910888671875,-0.8621557587623596,0.41941374507248397,5.9220157208204265
1691674008628956000,1.626955810546875,-1.5301900443941354,0.4889122287124395,5.421600685840845
1691674008639000800,1.637000732421875,-1.9037521388739347,0.7047013437718153,4.889007720834017
1691674008649046800,1.647046875,-2.0911983720242975,1.3161696925729511,4.72637327285707
1691674008659092000,1.657092041015625,-2.090473564881086,2.3128081560611724,5.029002466979622
1691674008669137000,1.667136962890625,-1.9990473270714282,3.209508573982119,5.631202636697888
1691674008679182000,1.67718212890625,-2.2576889109075067,3.670943013182282,5.702849822804332
1691674008689226800,1.687226806640625,-2.503773795509338,3.6522947190746664,5.063374107658863
1691674008699273000,1.69727294921875,-2.5741572452902792,3.2651465823128816,4.4522219852000475
1691674008709318000,1.70731787109375,-2.7891993413746357,2.4620830639883873,3.8212171612799164
1691674008719363000,1.717363037109375,-2.8652000465154646,1.549752530737221,3.0972394546300173
1691674008729408000,1.727407958984375,-2.754467050689459,1.0070914684414862,2.4433266333311794
1691674008739453000,1.737452880859375,-2.758377502131462,1.0260799542888999,1.8855039499998092
1691674008749499000,1.747498779296875,-2.9065023632407185,1.371549926750362,1.7031489025086164
1691674008759543800,1.757543701171875,-3.060221098834276,1.8048598029673097,1.7413333794742822
1691674008769589000,1.767589111328125,-3.0738275993824002,2.437418870592117,1.8188970961481332
1691674008779634000,1.777634033203125,-2.940101850503683,3.456801373068988,2.3427362613350153
1691674008789679000,1.78767919921875,-3.2240462179005145,4.480879339885711,2.6028683759897944
1691674008799725000,1.79772509765625,-3.373874375796318,4.832495852278172,2.3877760110229254
1691674008809770000,1.80777001953125,-3.216691763484478,4.733488657820224,2.199562300631404
1691674008819815000,1.81781494140625,-2.9745442183315753,4.366785635454953,2.116742563125491
1691674008829860000,1.827860107421875,-2.9392110391438004,3.723751058784127,1.9063024078786373
1691674008839905000,1.837905029296875,-3.254160785657167,2.9944036417946216,1.3999579828500748
1691674008849951000,1.847950927734375,-3.547114973461628,2.5417498904213307,1.0679448733329773
1691674008859996000,1.857995849609375,-3.881164557242393,2.5555846467673775,1.0065893641382455
1691674008870040800,1.868040771484375,-4.447000451159477,2.9373630731895566,1.0067337410449981
1691674008880086000,1.8780859375,-4.852949734503031,3.4459915175020694,0.9677689273566007
1691674008890131000,1.888130859375,-5.098347221362591,3.8852503652513026,0.7668506336927413
1691674008900177000,1.898177001953125,-5.044976865702867,4.1214162056460975,0.4303320294499397
1691674008910222000,1.90822216796875,-4.814677579253912,4.233927024799585,0.009676175361871719
1691674008920266800,1.918266845703125,-4.47219100651741,4.298720691749454,-0.4409171363502741
1691674008930312000,1.92831201171875,-4.16450219091773,4.284902009755373,-0.9990993006438016
1691674008940356900,1.93835693359375,-3.9211139980539675,4.2018093005269765,-1.6196324149101973
1691674008950402000,1.948402099609375,-3.6874057799443603,4.116830923682451,-2.1525515431314703
1691674008960448000,1.958447998046875,-3.480472171513736,4.135638792265952,-2.550653035584092
1691674008970493000,1.968492919921875,-3.3116265939369796,4.258044397968054,-2.8995272635310885
1691674008980537900,1.978537841796875,-3.2904011428177355,4.446167799727618,-3.1460148837149142
1691674008990583000,1.9885830078125,-3.466284656207263,4.717777586208284,-3.5440403883218763
1691674009000629000,1.99862890625,-3.475145131272077,4.917168231913447,-4.061189700481295
1691674009010674000,2.008673828125,-3.4843899294793603,4.935445646882057,-4.608274716699123
1691674009020719000,2.018718994140625,-3.546483982081711,4.88370318468511,-5.06360265571773
1691674009030763800,2.028763671875,-3.6219825829192995,4.822224341371655,-5.3858133331447835
1691674009040809000,2.03880908203125,-3.6957866547986864,4.740928452432155,-5.634601046964526
1691674009050854000,2.04885400390625,-3.7648245351895686,4.650090828165411,-5.843149104854464
1691674009060900000,2.058900146484375,-3.7424820627391338,4.556532546763122,-6.005110183614492
1691674009070945000,2.068945068359375,-3.744742116625607,4.518782077300548,-6.025390755099058
1691674009080990000,2.078989990234375,-3.8623391530022024,4.516807562357187,-5.910152264547348
1691674009091035000,2.089034912109375,-4.009078989493847,4.646433766962588,-5.696764949932694
1691674009101080000,2.099080078125,-4.181235006792843,4.704714983278513,-5.564181941348314
1691674009111126000,2.1091259765625,-4.331246412301064,4.731444000250101,-5.305806314972043
1691674009121171000,2.1191708984375,-4.485573927442729,4.845542088595033,-5.0373786656588315
1691674009131216100,2.129216064453125,-4.512622093366086,4.881414196965098,-4.871811671361327
1691674009141260800,2.1392607421875,-4.285748105190694,4.874249419902265,-4.648432539564371
1691674009151306000,2.149305908203125,-4.049559760703146,4.93564379980266,-4.360347419100999
1691674009161352000,2.15935205078125,-3.9697912274613976,4.980885209542513,-4.013571624737978
1691674009171396900,2.16939697265625,-3.825709212002158,5.041999311196804,-3.4545027407377957
1691674009181442000,2.179442138671875,-3.5725562887102362,5.135794031703472,-2.927514756131172
1691674009191486700,2.18948681640625,-3.3158339824989436,5.125835532268882,-2.37833013728559
1691674009201533000,2.199532958984375,-3.1541420760691166,5.143306307029724,-1.6802835752278564
1691674009211577900,2.209577880859375,-3.0004107732549308,4.880158059424161,-1.237923838853836
1691674009221623000,2.219623046875,-2.770080214884877,4.51690430072993,-0.8595973064512014
1691674009231668000,2.22966796875,-2.5179694941222666,4.264980334711074,-0.5007324303656816
1691674009241713200,2.239713134765625,-2.1480594924092293,4.1362826431274415,-0.17233809586763382
1691674009251759000,2.249759033203125,-1.7204408135712146,4.044598338903486,0.13893968413472174
1691674009261803800,2.2598037109375,-1.436150555346161,3.9951363888591525,0.46890345990657806
1691674009271849000,2.269848876953125,-1.2659599929012357,4.0594659454286095,0.9594330606877803
1691674009281894000,2.279893798828125,-1.2475918309092522,4.186730973860621,1.5458528929501771
1691674009291939000,2.28993896484375,-1.5363888990342616,4.242183981013298,2.077758460214734
1691674009301985000,2.299985107421875,-2.0425766721963883,4.142926903447509,2.3962737902551887
1691674009312030000,2.310030029296875,-2.6914696195065972,3.701464115913212,2.4629478641241787
1691674009322075000,2.320074951171875,-3.1534967639029023,3.3390795412689447,2.71212954569757
1691674009332120000,2.3301201171875,-3.660100716650486,3.4230145465403794,3.210147456407547
1691674009342165000,2.3401650390625,-4.154477640509605,3.519234156106412,3.832616507172584
1691674009352211000,2.3502109375,-4.2994682952463625,3.462290618135035,4.515524536809325
1691674009362256100,2.360256103515625,-4.268167148053646,3.276756063824892,5.0464621358245605
1691674009372300800,2.37030078125,-4.202151245832443,2.8929890939339993,5.4495571987807745
1691674009382346000,2.380345947265625,-4.221216011786461,2.72177123426795,6.116420687067508
1691674009392391000,2.390390869140625,-4.4923184332668775,2.69027076511085,6.726432407319545
1691674009402436600,2.4004365234375,-4.734921905493736,2.436539165148139,7.007187623286247
1691674009412481500,2.4104814453125,-4.699116432619094,1.7015180864363908,6.968969244050979
1691674009422526500,2.4205263671875,-4.309668202221394,0.6718231565207242,6.731793057569861
1691674009432571400,2.4305712890625,-3.573336625432968,-0.4070435083210468,6.476750375008582
1691674009442616600,2.440616455078125,-2.6589620191335674,-1.3010270684987306,6.288236804887652
1691674009452662500,2.45066259765625,-2.037293763357401,-2.1008418141603467,6.010787644729018
1691674009462707500,2.46070751953125,-1.4357669628560543,-2.6989035688996315,5.909526241603493
1691674009472752600,2.470752685546875,-0.9598761282801628,-3.059827131080627,5.754338017979264
1691674009482797300,2.48079736328125,-0.6286556304454803,-3.265959360000491,5.69427313311696
1691674009492842500,2.490842529296875,-0.352101957821846,-3.0106887139022347,6.032478667533398
1691674009502888400,2.500888427734375,-0.34060558129549023,-2.7710224641710517,6.09172405270636
1691674009512933400,2.510933349609375,-0.20233636203454805,-2.978426028200984,5.90240793403089
1691674009522978600,2.520978515625,0.008793547308444977,-3.1969010213434697,5.75958644002676
1691674009533023200,2.531023193359375,-0.042700493085384365,-3.3769092134475707,5.431425329762697
1691674009543068400,2.541068359375,-0.18319032927155493,-3.6225580447196957,5.075405321714282
1691674009553114400,2.5511142578125,-0.34409521350953726,-3.874507437440753,4.691144138565659
1691674009563159600,2.56115966796875,-0.4785013093352318,-4.115212382569909,4.252310822752118
1691674009573204500,2.57120458984375,-0.5278723662257194,-4.329975077190995,3.87106284994483
1691674009583249700,2.581249755859375,-0.5349169875076041,-4.455927269458771,3.6112528068512675
1691674009593294300,2.59129443359375,-0.49095977235939353,-4.432114432194829,3.526784717616439
1691674009603340300,2.60134033203125,-0.5318664042979478,-4.280595252472162,3.4758985799878834
1691674009613385500,2.611385498046875,-0.5732120487082749,-4.252868456634879,3.2505215523719784
1691674009623430400,2.621430419921875,-0.34861645379364486,-4.3542841735392805,3.0622546504884958
1691674009633475600,2.6314755859375,-0.20478600194267926,-4.217741613674163,3.1157676294893024
1691674009643520300,2.641520263671875,-0.35272162409014995,-4.085431576812267,2.847942622244358
1691674009653566500,2.65156640625,-0.3230312730949372,-4.3100428807526825,2.40666015971303
1691674009663611400,2.661611328125,-0.03307750921547413,-4.645111286187172,2.179859821295738
1691674009673656600,2.671656494140625,0.3041728433679789,-4.83627800116539,2.0967823096364735
1691674009683701500,2.681701416015625,0.5713280615925789,-5.027424257877469,2.0073679961711166
1691674009693746700,2.69174658203125,0.7335445764183998,-5.265953612533211,1.8629110099196433
1691674009703792400,2.70179248046875,0.8593803026996553,-5.371192687118053,1.722935552996397
1691674009713837300,2.71183740234375,1.0084015281267464,-5.298595652940869,1.7025199569553136
1691674009723882500,2.721882568359375,1.1261353426255285,-5.070125335484743,1.7322680294871329
1691674009733927400,2.731927490234375,1.2825444863468407,-4.741365090283751,1.9559984589397905
1691674009743973400,2.741973388671875,1.3762427607417105,-4.129315726724267,2.5579589746832845
1691674009754018600,2.7520185546875,0.8734532517157495,-3.4895074186235666,2.703721782836318
1691674009764063200,2.762063232421875,0.35174992951378226,-3.3351404482543465,2.3982716860741378
1691674009774108400,2.7721083984375,0.2307879467487335,-3.3356168335944414,2.3721470647364855
1691674009784153300,2.7821533203125,0.18754618639349938,-3.2044220644980665,2.5039766246050594
1691674009794199600,2.792199462890625,0.1836276977755129,-2.9557307967901227,2.674090030160546
1691674009804244500,2.802244384765625,0.1780863571960479,-2.771885218480229,2.703024448221922
1691674009814289700,2.81228955078125,0.33003289548531173,-2.864309819677472,2.595627318820357
1691674009824334300,2.822334228515625,0.7845371700961142,-2.99917187910974,2.5505495752096174
1691674009834379500,2.832379638671875,1.1528886172555386,-3.0359751308500766,2.468337155947089
1691674009844425500,2.842425537109375,1.5405859123326837,-3.005613894855976,2.4526538491249084
1691674009854470400,2.852470458984375,1.7542204797066747,-2.6716940749347207,2.6744115171998737
1691674009864515600,2.862515625,1.4912193854868412,-1.9970657978653907,2.8622867894172668
1691674009874560300,2.872560302734375,1.1586479114346206,-1.4903344193458556,2.9579204157888888
1691674009884605400,2.88260546875,0.99525592308864,-1.2094085229873657,3.012605361178517
1691674009894651400,2.8926513671875,0.8316380170322955,-1.0688117192953825,2.9858389348059893
1691674009904696600,2.902696533203125,0.7733407263644039,-1.1090607275754212,3.0453105299502607
1691674009914741500,2.912741455078125,0.9546411502361297,-1.3074480414569376,3.1021786645978686
1691674009924786700,2.92278662109375,1.0482572993054986,-1.589126802009344,3.153654000291228
1691674009934832400,2.932832275390625,1.0431696207776666,-1.6414397575706243,3.3543168578892946
1691674009944877300,2.942877197265625,0.8239668978825211,-1.3324579795509577,3.675381872412562
1691674009954922500,2.952922607421875,0.37352220086082816,-1.0120166498839855,3.7166315821677443
1691674009964967400,2.962967529296875,0.14135902023613453,-0.8161848657041788,3.6673388512104745
1691674009975012600,2.9730126953125,-0.017794015365839005,-0.32921500323116776,3.6003164022952316
1691674009985058600,2.98305859375,-0.25095175998583436,0.531381251129508,3.601003800037503
1691674009995103200,2.993103271484375,-0.3520756543368101,1.0845230831682682,3.691958328682184
1691674010005148400,3.0031484375,-0.19991949188485741,1.1086579919934272,3.6090175951451062
1691674010015193300,3.013193359375,0.006356675550341606,0.9670493809103965,3.3233149859040974
1691674010025238500,3.023238525390625,0.26742409829385577,0.6828232739627361,3.0164766496539115
1691674010035284500,3.033284423828125,0.37624095830023285,0.3065525050461292,2.819996630698442
1691674010045329700,3.04332958984375,0.0734422528296709,-0.023425299251079557,2.6411113051444293
1691674010055374300,3.053374267578125,-0.20442666711099444,-0.5154419237196445,2.2771318625241515
1691674010065419500,3.06341943359375,-0.24464929884076117,-0.882494782435894,1.9666490322917698
1691674010075465500,3.073465576171875,-0.37129524552635845,-0.7749667201310396,1.8261942674189804
1691674010085510400,3.083510498046875,-0.5341290885329246,-0.473441103336215,1.6528683295577764
1691674010095555600,3.0935556640625,-0.5193103626508265,-0.1806023586049676,1.5575234569996594
1691674010105600300,3.103600341796875,-0.5085352130711078,0.3298053703397512,1.6921452779352664
1691674010115645400,3.1136455078125,-0.6051965019900352,1.0926301095172761,2.111523951694369
1691674010125691400,3.12369140625,-0.7506552856951951,1.8378502184212206,2.5437638605922457
1691674010135736600,3.133736572265625,-0.9668740243434906,2.4184677941456436,2.856646737703681
1691674010145781500,3.143781494140625,-1.2174480370581149,2.834755223891139,3.0783781022936103
1691674010155826700,3.15382666015625,-1.577397785770893,3.094901074810326,3.231639741769433
1691674010165871400,3.163871337890625,-2.0846914743483067,3.178232853491604,3.0921956152439116
1691674010175917300,3.173917236328125,-2.5238860246896744,3.017297902908921,2.6652918066769837
1691674010185962500,3.18396240234375,-2.7612533498287197,2.837899951657653,2.2545886068046093
1691674010196007400,3.19400732421875,-3.0135610544681546,2.70875334726274,1.8038474110543727
1691674010206052600,3.204052490234375,-3.216075677412748,2.623141933211684,1.3522697644799946
1691674010216098600,3.2140986328125,-3.347864320749044,2.5857255180090664,0.9558867663830518
1691674010226143500,3.2241435546875,-3.4521009402930734,2.5829285807669162,0.5611737473249435
1691674010236188400,3.2341884765625,-3.5207951218128204,2.646777075821161,0.2738268780082464
1691674010246233300,3.2442333984375,-3.6616356711328026,2.771590619447827,0.013507131826877593
1691674010256278500,3.254278564453125,-3.859268367254734,3.0509137567847966,-0.13079963229894637
1691674010266324500,3.264324462890625,-4.097652760481834,3.3309938499689102,-0.4158446544140577
1691674010276369400,3.274369384765625,-4.08074488030076,3.308970234209299,-0.9475801258087158
1691674010286414300,3.284414306640625,-4.007942678940296,3.073098992846906,-1.5792489665955305
1691674010296459500,3.29445947265625,-3.8804920648083088,2.947695958894491,-2.1063310592263935
1691674010306505500,3.30450537109375,-3.7408959625914693,2.86392169714272,-2.540992642313242
1691674010316550400,3.31455029296875,-3.647337973450124,2.72044670766592,-3.0027012222796676
1691674010326595600,3.324595703125,-3.566187338200211,2.6642981194645166,-3.380160908719897
1691674010336640300,3.33464013671875,-3.506759289936721,2.722388781644404,-3.6647412359327074
1691674010346685400,3.344685546875,-3.5016353710517287,2.850731960701942,-3.8962399612993
1691674010356731400,3.3547314453125,-3.510625609976053,3.104389910906553,-3.9632647483021017
1691674010366776600,3.364776611328125,-3.6261411639034744,3.5286484656617043,-3.9794460677742958
1691674010376821500,3.374821533203125,-3.7293268130898474,3.8542695360541344,-4.048954488286376
1691674010386866700,3.38486669921875,-3.6695699712634084,4.007217871797085,-4.138046145668626
1691674010396911400,3.394911376953125,-3.5359716481566426,4.092490263152122,-4.198236702737212
1691674010406957800,3.404957763671875,-3.3325486781954763,4.218210984751582,-4.1326369801014655
1691674010417003000,3.4150029296875,-3.10571969820559,4.468644127690792,-3.832548702633381
1691674010427048000,3.4250478515625,-3.1453719096362587,4.571695044581592,-3.7162475512862203
1691674010437093000,3.435093017578125,-3.0016873690620063,4.37340154646337,-3.719323305469751
1691674010447139000,3.44513916015625,-2.671149300533533,4.072802104602754,-3.773752230271697
1691674010457183700,3.455183837890625,-2.385771393202245,3.7948455794438716,-3.82067004879117
1691674010467229000,3.46522900390625,-2.2677065931834277,3.616284079016745,-3.7728409606456754
1691674010477273900,3.47527392578125,-2.3111875691220165,3.6001278939858077,-3.6096021170347927
1691674010487319000,3.485319091796875,-2.523703946121037,3.7863504305601117,-3.388210359662771
1691674010497365000,3.495364990234375,-2.6935882190957665,4.032928651636839,-3.1225358084499835
1691674010507410200,3.50541015625,-2.7108520731076595,4.254079293729364,-2.8310815038144588
1691674010517454800,3.515454833984375,-2.7484207562625405,4.471655292205512,-2.6023662716865537
1691674010527500000,3.5255,-2.7510847147747874,4.652663893523812,-2.416834932246804
1691674010537546000,3.5355458984375,-2.6472648593381045,4.705241052979231,-2.247859590810537
1691674010547591000,3.5455908203125,-2.606789933347702,4.682122919981182,-2.089312119886279
1691674010557636000,3.555635986328125,-2.6070626128092407,4.643128003415465,-1.881266750821471
1691674010567680800,3.5656806640625,-2.3573807266287505,4.582527404241263,-1.5586872400820255
1691674010577726000,3.575725830078125,-2.0888357345461843,4.454856717617809,-1.341743109768629
1691674010587772000,3.58577197265625,-1.984006409806013,4.21220911398828,-1.2495897267282008
1691674010597816800,3.59581689453125,-1.9139013385750352,3.9183559315174814,-1.1625415578722953
1691674010607862000,3.605862060546875,-1.7775345736682413,3.6952024251699447,-0.8890992952674627
1691674010617907000,3.615906982421875,-1.8427157786309718,3.5953032503083344,-0.60692895180583
1691674010627953200,3.625953125,-2.0982943216346204,3.5983801735356447,-0.37813130209147927
1691674010637997800,3.635997802734375,-2.4639666857779026,3.9331954809918996,0.04890460842251777
1691674010648043000,3.64604296875,-2.7672411920666695,4.597473628960549,0.9591600889652967
1691674010658088000,3.656087890625,-3.1576445312321186,5.1689095348417755,1.962995185959339
1691674010668133000,3.666133056640625,-3.4979999371588226,5.297777906817197,2.694849325072765
1691674010678179000,3.676178955078125,-3.222070533913374,5.009431505069136,3.1056454639255997
1691674010688223700,3.6862236328125,-2.8542718252658843,4.3913574743926524,3.241936679378152
1691674010698269000,3.69626904296875,-2.8145898032188414,3.5353719286978245,3.2898376637160776
1691674010708313900,3.70631396484375,-2.8043489797115324,2.657310744795203,3.4260745186328885
1691674010718360000,3.716360107421875,-2.6821570167601108,1.7111586059629915,3.423599068430066
1691674010728405000,3.726405029296875,-2.396470774132013,0.709028559321165,3.2679484879910943
1691674010738450200,3.7364501953125,-2.0024539206445215,0.05783025767803192,3.246502964380383
1691674010748494800,3.746494873046875,-1.540202319842577,-0.08444061670601367,3.5645898398756977
1691674010758540000,3.7565400390625,-1.1057750569682567,-0.007824994537234306,3.960084364700317
1691674010768586000,3.7665859375,-0.6739712014000863,-0.11422551411688327,4.303920598480105
1691674010778631000,3.776630859375,-0.2288894196510315,-0.32404958329200745,4.525617476278543
1691674010788676000,3.786676025390625,0.14467852004766463,-0.5828384666442871,4.757718259191512
1691674010798720800,3.796720703125,0.4766998128712177,-0.7898346189171075,5.104462489372492
1691674010808766700,3.8067666015625,0.6805670194685459,-1.1212754815042019,5.230758965033292
1691674010818812000,3.81681201171875,0.8737865753233433,-1.5981658485114574,5.1715685249179595
1691674010828856800,3.82685693359375,0.9087900841653347,-2.0062638343214987,5.011919814753532
1691674010838902000,3.836902099609375,0.6565875934660435,-2.4157950678050515,4.748164248904586
1691674010848947000,3.846947021484375,0.28477438848018644,-2.6601988674521446,4.680569553059339
1691674010858993200,3.8569931640625,-0.17242697972748428,-2.7455770572692155,4.595647290316224
1691674010869037800,3.867037841796875,-0.5078460617631674,-3.062259326663613,4.302938017183542
1691674010879083000,3.8770830078125,-0.6008791137149557,-3.4511680433571335,3.950677653929591
1691674010889128000,3.8871279296875,-0.36177111892104147,-3.434468252968788,3.786467334938049
1691674010899174000,3.897173828125,-0.2397334332158789,-3.2520833948612213,3.6406788078218697
1691674010909219000,3.907218994140625,-0.12845098681356756,-3.335125250685215,3.2433956460148092
1691674010919263700,3.917263671875,0.16190204204916953,-3.5466719058692453,2.796170349431038
1691674010929309000,3.927308837890625,0.5213748208999633,-3.641730362701416,2.5597388438373803
1691674010939355000,3.93735498046875,0.6731097622651606,-3.5464252376317975,2.3933716390728947
1691674010949400000,3.947400146484375,0.6782406223475933,-3.485278402751684,2.0282646537274123
1691674010959445000,3.957445068359375,0.7672972814816981,-3.5350621320962903,1.7035335179120301
1691674010969490200,3.967490234375,0.8197966995257884,-3.6067321145564315,1.4885007741779088
1691674010979534800,3.977534912109375,0.9277040434718131,-3.6585195849388836,1.3062000872224568
1691674010989580800,3.987580810546875,1.1054127264618874,-3.516574873769283,1.3143418926239012
1691674010999626000,3.9976259765625,1.1136381184935569,-3.100917266359925,1.5192045399993657
1691674011009671000,4.0076708984375,0.9280535875618457,-2.7715321672588584,1.590135686790943
1691674011019716000,4.017716064453125,0.9072761724710464,-2.654709037864208,1.6490426337897777
1691674011029760800,4.0277607421875,0.9165192171126604,-2.6662562677949664,1.7325298952937125
1691674011039806700,4.037806640625,0.8346328149341047,-2.6353631168812512,1.895903178939223
1691674011049852000,4.047851806640625,0.573574963736534,-2.49254396096468,1.991220578968525
1691674011059896800,4.057896728515625,0.43353170227408405,-2.4590000032812354,1.933742787989974
1691674011069942000,4.06794189453125,0.5342639669589698,-2.6303672082901,1.906640261530876
1691674011079988000,4.077988037109375,0.7343794928725809,-2.7078847477346657,1.8142285198152064
1691674011090033200,4.088033203125,1.0001498326100409,-2.602234169739485,1.9130162263035773
1691674011100077800,4.098077880859375,1.17351559102498,-2.308254146018624,2.092428206080198
1691674011110123000,4.108123046875,1.3080221880830825,-2.088961406752467,2.216134665247798
1691674011120169000,4.1181689453125,1.6167869623512028,-2.2014339397221803,2.302735674858093
1691674011130214000,4.1282138671875,1.831104689683765,-2.414221534878015,2.169063701993227
1691674011140259000,4.138259033203125,1.932922119256854,-2.518891869664192,2.0525351716309785
1691674011150303700,4.1483037109375,2.0324552372850477,-2.4959090534836053,2.121806276255846
1691674011160350000,4.158349853515625,2.0919781242251396,-2.3448767804950474,2.230226318964362
1691674011170395000,4.168394775390625,2.161524100268632,-2.127266879749298,2.2814573245078322
1691674011180440000,4.178440185546875,2.169385773554444,-1.9669851323783396,2.2750971418261527
1691674011190485000,4.188485107421875,2.131527605933696,-1.700737749713659,2.2920617206305263
1691674011200530200,4.1985302734375,2.022252992222458,-1.349400931045413,2.4011831896066664
1691674011210576100,4.208576171875,1.8406199753955006,-0.9608288989603518,2.548650463590026
1691674011220620800,4.218620849609375,1.672233539763093,-0.5342717118740081,2.642448106706142
1691674011230666000,4.228666015625,1.5436298100732266,-0.23134382706582546,2.7578806585252282
1691674011240711000,4.2387109375,1.5435533838361502,-0.1435819569826126,2.8653531912505623
1691674011250756900,4.2487568359375,1.6049438182137905,-0.20661796661019324,2.803560459682345
1691674011260802000,4.258802001953125,1.5531927343189715,-0.31885084560513494,2.6513123811632395
1691674011270846700,4.2688466796875,1.4133889807008206,-0.43649347468912597,2.505998485821485
1691674011280892000,4.278891845703125,1.2118144150853156,-0.5255272644042969,2.3396190060973168
1691674011290936800,4.288936767578125,0.9716085055194794,-0.6074848321229219,2.1517063244789836
1691674011300983000,4.298983154296875,0.8205775477051734,-0.6782640032231807,2.0142203462839126
1691674011311028000,4.309028076171875,0.7894014881968497,-0.7461269946157932,1.9567723659217358
1691674011321073200,4.3190732421875,0.8037368875414133,-0.4986819275766611,2.0134704046994445
1691674011331117800,4.329117919921875,0.8348422199010849,0.19664777673780917,2.229088839367032
1691674011341163800,4.339163818359375,0.9475883091151713,0.8099743206262588,2.604436648219824
1691674011351209000,4.349208984375,1.2481003649532794,0.9524737430691719,2.9261428832560776
1691674011361254000,4.35925390625,1.5080081693328917,0.8840998795449733,3.1772160776644944
1691674011371299000,4.369299072265625,1.5889339097857473,0.5637742852121591,3.1660663226187227
1691674011381345000,4.379344970703125,1.465497499731183,0.08620236568152904,3.0089754802435635
1691674011391390000,4.389389892578125,1.1620984172146767,-0.34677988601624965,2.944150833633542
1691674011401435000,4.399434814453125,0.8222562945723533,-0.8029045283704995,2.801169765153527
1691674011411483100,4.409483154296875,0.44240240647196766,-1.3362947812348605,2.4316332729279995
1691674011421528000,4.419528076171875,0.1773989046548493,-1.7088520825862883,2.037826262798905
1691674011431574000,4.429573974609375,-0.030703747555147855,-1.722055263030529,1.8705887049406766
1691674011441619200,4.439619140625,-0.20126316157877444,-1.4811591792434453,1.8558949936777351
1691674011451664000,4.449663818359375,-0.37311318166852,-0.9943553209871053,1.9525339976996183
1691674011461709000,4.459708984375,-0.5248328523993492,-0.34175592037439345,2.0597826585412022
1691674011471755000,4.469755126953125,-0.6420739149451256,0.3293541194409132,2.139773894622922
1691674011481800200,4.47980029296875,-0.7915279788315296,0.9445955570399761,2.2542484150648114
1691674011491845000,4.48984521484375,-0.8698504049181938,1.4259090011864899,2.309749937534332
1691674011501890300,4.499890380859375,-0.9381271647434681,1.6712252395033835,2.2295839294075965
1691674011511936300,4.509936279296875,-0.9784218387961388,1.6964228091239928,2.1530781973540782
1691674011521981000,4.51998095703125,-1.088003326499462,1.6085270835280416,2.0033961699306966
1691674011532026000,4.530026123046875,-1.2586077304422854,1.4190589891612528,1.762857813540101
1691674011542071000,4.540071044921875,-1.4422610010504722,1.2229425428211689,1.5244079538613557
1691674011552117000,4.550116943359375,-1.5032663816332816,1.244005789116025,1.4359236147224903
1691674011562162200,4.560162109375,-1.6255381318226456,1.5942062972307205,1.4584277074754237
1691674011572206800,4.570206787109375,-1.8879132030986248,1.744860384556651,1.2466215245723724
1691674011582252000,4.580251953125,-2.0557038647949692,1.6118389845550058,0.914240750786662
1691674011592297000,4.590296875,-2.163876654744148,1.5477695402264595,0.7136755083441734
1691674011602343200,4.60034326171875,-2.3545957720853385,1.5284464155972004,0.5238642996281385
1691674011612388000,4.61038818359375,-2.554529000234604,1.3837082743167877,0.25484160703122616
1691674011622433300,4.620433349609375,-2.768562211537361,1.1698837373286486,-0.07164952419400215
1691674011632478000,4.63047802734375,-3.0033763450622555,1.025147349613905,-0.33682430919110773
1691674011642524000,4.64052392578125,-3.3083550249204037,1.066104506163299,-0.43437224475145336
1691674011652569000,4.650569091796875,-3.7325413912221785,1.2938374492555855,-0.4476870688766241
1691674011662614000,4.660614013671875,-4.05148371450305,1.4419076575681566,-0.5541098002880811
1691674011672659200,4.6706591796875,-4.2305823905467985,1.4289789101511239,-0.7737380551189184
1691674011682705200,4.680705078125,-4.329783938533067,1.486085237468779,-0.9354811072140932
1691674011692750000,4.69075,-4.449933289740979,1.659126220908761,-1.0126578703969717
1691674011702795000,4.700794921875,-4.6661900223121044,1.9514426953315733,-1.0088847815990447
1691674011712840200,4.710840087890625,-4.7993049458160995,2.2360686152517792,-1.0727765312731266
1691674011722886100,4.72088623046875,-4.708429327626526,2.3363874768301844,-1.2561042231887578
1691674011732931000,4.73093115234375,-4.658998649503291,2.3149951447114345,-1.5285434462308882
1691674011742976300,4.740976318359375,-4.60624759478569,2.259756364831328,-1.7024398774564264
1691674011753021000,4.75102099609375,-4.535491512300074,2.204349242646992,-1.8741677324712276
1691674011763066000,4.761066162109375,-4.4511727684080595,2.0887568240910768,-2.0381968496769667
1691674011773112000,4.771112060546875,-4.33748209182024,1.8690379683673382,-2.28500537237823
1691674011783157000,4.781156982421875,-4.248066901572049,1.753840686608851,-2.53517723403275
1691674011793202200,4.7912021484375,-4.210144874934852,1.8653043347969651,-2.610419229760766
1691674011803246800,4.801246826171875,-4.146147911320626,2.2122835427775978,-2.4670944624096154
1691674011813293000,4.81129296875,-4.181491611902415,2.6846345127895472,-2.325465393060446
1691674011823338000,4.821337890625,-4.151861320531368,3.023000790725648,-2.2816847035229206
1691674011833383200,4.831383056640625,-3.9667628195509312,3.217575268320739,-2.254913600975275
1691674011843428000,4.841427978515625,-3.8121851290404796,3.353137292715907,-2.220646005192399
1691674011853474000,4.85147412109375,-3.6593937374249097,3.458918511353433,-2.105743030205369
1691674011863519200,4.861519287109375,-3.518113043121993,3.6843186275839805,-1.8353110553324221
1691674011873564000,4.87156396484375,-3.6011613286867736,3.9879154976949094,-1.648562741318345
1691674011883609000,4.881609130859375,-3.7354885505899786,4.093328175280988,-1.5994219860523937
1691674011893655000,4.891655029296875,-3.678917937584221,3.9338676811650393,-1.5943050814300774
1691674011903700200,4.9017001953125,-3.4572701596245166,3.642884501172602,-1.5843325534701347
1691674011913745200,4.9117451171875,-3.3358024192944167,3.46390331402868,-1.5372423009932041
1691674011923790000,4.9217900390625,-3.2906516104474663,3.4335888397857546,-1.4539467626690863
1691674011933835000,4.9318349609375,-3.2085072879850864,3.4841955759510395,-1.2999731755316257
1691674011943881000,4.941880859375,-3.149525522184372,3.667092182973027,-1.0196674568980932
1691674011953926100,4.951926025390625,-3.070618281947076,3.848935481549799,-0.8074854264199733
1691674011963971000,4.96197119140625,-2.889017267693579,3.8535248551666736,-0.6981324867755174
1691674011974016300,4.972016357421875,-2.5882632197931406,3.856164263759553,-0.4897089320480823
1691674011984062200,4.982062255859375,-2.376269113102555,3.968719506576657,-0.20214345154464244
1691674011994107000,4.99210693359375,-2.252810198955238,3.9556910981774327,-0.04208206892609596
1691674012004152000,5.002152099609375,-2.081623026688397,3.7814074211999773,0.012308861953020096
1691674012014197000,5.012197021484375,-1.9329075062096117,3.5194498446837064,0.07273790395259856
1691674012024243200,5.0222431640625,-1.8496295035421848,3.2483339791998267,0.16397943284511565
1691674012034288000,5.0322880859375,-1.754198414005339,2.921706946635246,0.21873568990528583
1691674012044333000,5.0423330078125,-1.6752373977541923,2.5112054068148133,0.19322072489857672
1691674012054378000,5.0523779296875,-1.5910747212067244,2.0295158228322863,0.14392156420052052
1691674012064424000,5.062423828125,-1.4754831794336438,1.5001900429278612,0.06331716465651989
1691674012074469000,5.07246923828125,-1.2918562123104929,0.9233937790572643,-0.07306523621082306
1691674012084514000,5.08251416015625,-1.0701111114561557,0.32482875097095965,-0.2696048763990402
1691674012094559200,5.092559326171875,-0.6947960358291864,-0.15292846199870108,-0.39881636272370813
1691674012104605000,5.10260498046875,-0.2444213353037834,-0.3886024272233248,-0.421429761070013
1691674012114650000,5.112650146484375,0.15574220424517987,-0.4585603450685739,-0.38660628497004507
1691674012124695000,5.122695068359375,0.5060293677300215,-0.3346984030783176,-0.22254677262604236
1691674012134740200,5.132740234375,0.8400950258627533,-0.138174544981122,0.0704185210943222
1691674012144786200,5.1427861328125,1.1369910831607877,0.051365445578098294,0.33027474141716956
1691674012154831000,5.1528310546875,1.3281122054316103,0.3110919020414352,0.6655652651697397
1691674012164876000,5.1628759765625,1.4067080416321753,0.6679734953552484,1.1877151620954274
1691674012174921000,5.1729208984375,1.380304018831253,0.8993255057275295,1.6772890695869922
1691674012184966100,5.182966064453125,1.4224316804647446,0.8254056985139846,2.111964681199193
1691674012195012000,5.19301220703125,1.5324737714171408,0.6346534095555544,2.525687521153688
1691674012205057000,5.20305712890625,1.698674533573538,0.1776192511409521,2.81379076179564
1691674012215102200,5.213102294921875,2.0322000934801996,-0.6549655452221632,2.8800884035676715
1691674012225147100,5.223147216796875,2.4406840098679066,-1.5622873104006052,2.8430308848053216
1691674012235193000,5.233193115234375,2.746359732079506,-2.4323972430378196,2.854292868053913
1691674012245238000,5.243238037109375,2.9114298827707765,-3.224543061506748,2.735712081336975
1691674012255283200,5.253283203125,2.9395956545472144,-3.7847657917171715,2.526637369224429
1691674012265328000,5.263328125,2.7696611126899717,-4.0507875489324325,2.4881699836641546
1691674012275374000,5.2733740234375,2.38510065433383,-4.033091148722171,2.7885762410402295
1691674012285419000,5.2834189453125,2.0514532216131687,-3.708512573119998,3.291712809938192
1691674012295464000,5.2934638671875,1.6782944472372532,-3.1972511499553917,3.767039580890536
1691674012305509000,5.303509033203125,1.3590040411710738,-2.975846533101797,3.916147023296356
1691674012315555000,5.31355517578125,1.2877262728989123,-3.110910837107897,3.820860602927208
1691674012325600300,5.323600341796875,1.3548574428856373,-3.3065479754984377,3.535818503421545
1691674012335645000,5.33364501953125,1.4601380185246466,-3.3952643698275087,3.36594416731894
1691674012345690000,5.343690185546875,1.5912439402937888,-3.2980601331382986,3.397987072789669
1691674012355736000,5.353736083984375,1.7648446034431458,-3.03304083096385,3.5110628323495385
1691674012365781000,5.363781005859375,1.8975439318835734,-2.7031775929570196,3.7313311386495824
1691674012375826200,5.373826171875,1.9840788905203341,-2.125647754114866,4.138452388381958
1691674012385871000,5.38387109375,1.8369851260244845,-1.5311965910881757,4.402451699858903
1691674012395917000,5.3939169921875,1.7932009293556213,-1.2486509845733642,4.499525588166714
1691674012405959000,5.403958984375,1.743310817027092,-1.3020236783206462,4.204243249675631
1691674012416003800,5.41400390625,1.6334616182982922,-1.6463076558679341,3.722168173506856
1691674012426048800,5.424048828125,1.748521245151758,-2.095757642763853,3.5144057130366564
1691674012436094700,5.4340947265625,1.79223354562819,-2.2535434816658495,3.3776258372843264
1691674012446140000,5.444139892578125,1.6503765127420424,-2.361043486919999,3.089302816411853
1691674012456184800,5.454184814453125,1.6384721399366855,-2.53752759655118,2.882579051339626
1691674012466230000,5.46422998046875,1.7384008331537246,-2.6487913382530213,2.8419249693900346
1691674012476276000,5.47427587890625,1.911748398324847,-2.681704596817493,2.9462685564398763
1691674012486321000,5.48432080078125,2.0095447556883097,-2.7575059799939394,2.9304180763572454
1691674012496365800,5.49436572265625,1.9558441451609134,-2.6916461451172826,2.9425106652110813
1691674012506410800,5.50441064453125,1.7275035915642976,-2.2883266257554293,3.109052642020583
1691674012516457000,5.51445703125,1.4396002574086189,-2.062318314498663,3.0502538315713403
1691674012526502000,5.524501953125,1.1913485501617191,-2.116319369277358,2.8506378526777025
1691674012536547000,5.534547119140625,0.9300275179833173,-2.1789467981040476,2.684896086335182
1691674012546591700,5.544591796875,0.6461357575565576,-2.0642010595053435,2.6786984007388353
1691674012556637700,5.5546376953125,0.3358399377962574,-2.106970526173711,2.5996435687243937
1691674012566683000,5.564682861328125,0.0626280133485794,-2.3099901760309933,2.399052607318759
1691674012576727800,5.574727783203125,-0.23007599908709525,-2.3340952742397785,2.3486177205890417
1691674012586773000,5.58477294921875,-0.5354530306130647,-2.2126140899062157,2.5613445254683493
1691674012596819000,5.59481884765625,-0.9512018234372138,-2.105959303304553,2.6235966912418602
1691674012606864000,5.60486376953125,-1.3475029884696006,-2.1082149732768536,2.566982823616266
1691674012616908800,5.61490869140625,-1.7578981453061102,-2.0589204887539148,2.516911509501934
1691674012626953700,5.62495361328125,-2.282908692359924,-1.933671476319432,2.4140794960588217
1691674012636999000,5.6349990234375,-2.6338684944093225,-1.7204174326956272,2.5395120483666656
1691674012647044900,5.645044921875,-2.9158886157453057,-1.4072633374273775,2.7504724280953408
1691674012657090000,5.655090087890625,-3.263374019682407,-1.3170757015019654,2.8117198007404802
1691674012667134700,5.665134765625,-3.5100948641002176,-1.4497610014170408,2.750626157352328
1691674012677180000,5.675179931640625,-3.811049987530708,-1.537970030745864,2.716140534904599
1691674012687225900,5.685225830078125,-4.205279606986045,-1.5287147111445665,2.7039088298410174
1691674012697270800,5.695270751953125,-4.593412663131952,-1.605850557795167,2.4900205799669024
1691674012707316000,5.70531591796875,-4.874946462255716,-1.8082804250657558,2.141390682169795
1691674012717361000,5.71536083984375,-5.047089327812195,-1.9076859711915253,1.8477111027002333
1691674012727407000,5.725406982421875,-5.164580565726757,-1.9657973838984966,1.488382700756192
1691674012737451800,5.73545166015625,-5.077866743391752,-1.9879349814265965,1.188990004336834
1691674012747497000,5.7454970703125,-4.8318122539281845,-1.7320622777819632,1.242845513164997
1691674012757542000,5.7555419921875,-4.632009228029847,-1.2510387564927339,1.5534072538524866
1691674012767587800,5.765587890625,-4.480618935383856,-0.9491320314258337,1.8458190053433179
1691674012777633000,5.775633056640625,-4.351195559874177,-0.8950947362899779,2.0421318510383366
1691674012787677700,5.785677734375,-4.326974434070289,-1.048868416941166,2.0047738880246877
1691674012797723000,5.795722900390625,-4.38340768443197,-1.1837895130842924,1.9982593915641307
1691674012807768800,5.805768798828125,-4.557425988471508,-1.2482897500455379,1.9274808049857615
1691674012817813800,5.815813720703125,-4.653980821341276,-1.460128081652522,1.7000357389241456
1691674012827859000,5.82585888671875,-4.665586503461003,-1.7140742011487482,1.493405497354269
1691674012837904000,5.83590380859375,-4.6030274636954065,-1.9095564412385224,1.277049980583787
1691674012847950000,5.8459501953125,-4.536515594650805,-2.0380553953796623,1.1024620599627495
1691674012857994800,5.855994873046875,-4.448044114993512,-2.0425760876744983,1.0412947668164967
1691674012868040000,5.8660400390625,-4.429776929157972,-1.8459183740645646,1.1342670650243758
1691674012878084900,5.8760849609375,-4.524250864100456,-1.4415239189475775,1.4213327793121338
1691674012888130800,5.886130859375,-4.722232812051475,-0.9410901792675256,1.8404799824029205
1691674012898176000,5.896176025390625,-4.973123927891254,-0.5637824685186147,2.1046020434767008
1691674012908220700,5.906220703125,-5.167404975497722,-0.4868967972368002,2.1406565226763488
1691674012918265900,5.916265869140625,-5.134962841576337,-0.575227407118678,2.142395475298166
1691674012928311800,5.926311767578125,-4.981530521708726,-0.649814738330245,2.2216320936203
1691674012938357000,5.93635693359375,-4.878964173464476,-0.729579179918766,2.2733371464163064
1691674012948402000,5.94640185546875,-4.724417170353234,-0.9231664000421762,2.2408242853462697
1691674012958447000,5.956447021484375,-4.555570131471753,-1.1712544411599635,2.2196786214649675
1691674012968493000,5.9664931640625,-4.402807673689723,-1.2825287042558193,2.2360043178439137
1691674012978537700,5.976537841796875,-4.306171300016343,-1.1977280220657587,2.3431278910011053
1691674012988583000,5.9865830078125,-4.327746002964675,-1.0314707074165343,2.407325345623493
1691674012998627800,5.9966279296875,-4.523701121263206,-0.8434294309824705,2.513825233924389
1691674013008673800,6.006673828125,-4.690417285595834,-0.5892980180472135,2.6670447878241537
1691674013018719000,6.016718994140625,-4.796451017689705,-0.39682840377688405,2.68573896690011
1691674013028763600,6.026763671875,-4.9275242062330245,-0.3398053708285093,2.5408131940931082
1691674013038808800,6.036808837890625,-4.901044195586443,-0.36440439003407954,2.333702475529909
1691674013048854800,6.046854736328125,-4.679799153208732,-0.47291561815738675,2.120961642125249
1691674013058900000,6.05689990234375,-4.33835770561099,-0.6156342363089322,1.8860703517109154
1691674013068945000,6.06694482421875,-3.9840824954032894,-0.5932008707046509,1.7323744124710558
1691674013078990000,6.076989990234375,-3.6435084782898426,-0.38503859726190565,1.7085417014628648
1691674013089035800,6.087035888671875,-3.271431069409847,-0.08056523657739162,1.782007919690013
1691674013099080700,6.097080810546875,-2.8661703528523446,0.2933165913760662,1.9656985996991394
1691674013109126000,6.1071259765625,-2.647049463021755,0.6662392189085483,2.0946540654361248
1691674013119170800,6.1171708984375,-2.503395025324821,0.8096803061157465,1.936227006021142
1691674013129217000,6.127217041015625,-2.2739304361343384,0.7486071209937334,1.7038959214836358
1691674013139262000,6.137261962890625,-2.1576072190858424,0.7038011800616979,1.4936977582991122
1691674013149307000,6.147306884765625,-2.063559838992357,0.6298614991039038,1.2559633534133434
1691674013159351800,6.157351806640625,-1.882167499053478,0.4953086517512798,1.0656330892592667
1691674013169397800,6.167397705078125,-1.7074901465833185,0.3895850085198879,0.8706044381558895
1691674013179443000,6.17744287109375,-1.6033318529725074,0.2941296613246202,0.6934288391292095
1691674013189487900,6.18748779296875,-1.5714999599039554,0.2369596211209893,0.5302110383063554
1691674013199533000,6.197532958984375,-1.5579074878811836,0.30058775142282246,0.5103536606699228
1691674013209578800,6.207578857421875,-1.7110639134168624,0.5217272875994443,0.5606739811092615
1691674013219623700,6.217623779296875,-1.957709939032793,0.7078551316276193,0.5025169756948947
1691674013229668900,6.2276689453125,-2.0670856750309468,0.8623574188143014,0.4330214146643877
1691674013239713800,6.2377138671875,-2.2358874134659765,1.0940344233572483,0.3510784599930048
1691674013249760000,6.247760009765625,-2.476750179505348,1.4174515539646149,0.3405909682482481
1691674013259805000,6.257804931640625,-2.711321151924133,1.7032839270651339,0.2671077988862991
1691674013269849900,6.267849853515625,-2.809920642364025,1.7820295469999312,0.07472878550887108
1691674013279894800,6.277894775390625,-2.8044986173152924,1.7424068539246915,-0.21073943045437335
1691674013289940700,6.287940673828125,-2.8022283342957497,1.730209051130712,-0.445141476047039
1691674013299986000,6.29798583984375,-2.765755337423086,1.744038254518807,-0.6384615696668624
1691674013310030800,6.30803076171875,-2.7203286342442032,1.7746251159623265,-0.856257932895422
1691674013320075800,6.31807568359375,-2.6350129882693287,1.810686024902761,-1.0355500856846571
1691674013330121700,6.328121826171875,-2.58715467402935,1.9055238247215747,-1.204922902005911
1691674013340167000,6.3381669921875,-2.516717448234558,1.9887875066027043,-1.3735960456252096
1691674013350211800,6.3482119140625,-2.453931613975763,2.0600360487803817,-1.509725933036208
1691674013360257000,6.358257080078125,-2.4456292111851274,2.075601866702735,-1.6632231348335742
1691674013370303000,6.368302978515625,-2.406626257443428,2.1180285112828017,-1.7160101376473902
1691674013380348000,6.378347900390625,-2.5106173777937886,2.236186688673496,-1.63730718781054
1691674013390392800,6.388392822265625,-2.719725407654047,2.3002073254242537,-1.507251067355275
1691674013400437800,6.398437744140625,-3.009927666401863,2.3024647489622234,-1.241383623918891
1691674013410483500,6.4084833984375,-3.2608652517318726,2.3911995557308194,-0.7899649672985076
1691674013420528400,6.4185283203125,-3.4069372719645497,2.5376974001601336,-0.4457955560415983
1691674013430573300,6.4285732421875,-3.373881390058994,2.4249971959143877,-0.4640513437002897
1691674013440618200,6.4386181640625,-3.02416311250329,2.0086334860622883,-0.5723872152566909
1691674013450664200,6.448664306640625,-2.5639585073590276,1.7379840690463781,-0.6325964770257473
1691674013460709400,6.45870947265625,-2.0805939759016034,1.8402005809396504,-0.5400064561337232
1691674013470754300,6.46875439453125,-1.6556044765233993,2.1050424807205794,-0.4175000204056501
1691674013480799500,6.478799560546875,-1.246090778696537,2.3434815267443656,-0.4146861320286989
1691674013490845400,6.488845458984375,-0.7454383547645062,2.5728189824238417,-0.34980361775159835
1691674013500890400,6.498890380859375,-0.31817502870280295,2.86659851513654,-0.2687345233052969
1691674013510935300,6.508935302734375,-0.09855861044023186,3.0025591834604737,-0.4165717996448278
1691674013520980500,6.51898046875,0.22740360154006628,2.973641716533899,-0.6287567527323961
1691674013531026400,6.5290263671875,0.5037281050503254,2.9566023189276454,-0.8442185355335473
1691674013541071400,6.5390712890625,0.5018319160401821,2.843121193437278,-1.3204028000980614
1691674013551116300,6.5491162109375,0.41195466123819346,2.5551462553501127,-1.7729373090058564
1691674013561161200,6.5591611328125,0.30237085371362044,2.3723688907936213,-2.044910083580017
1691674013571207200,6.569207275390625,0.09943186787711455,2.670155321060121,-2.1178385416686534
1691674013581252400,6.57925244140625,-0.3848012813746929,3.1665985297992822,-2.064759277909994
1691674013591297300,6.58929736328125,-0.9679203185260296,3.494825398775935,-1.925873954311013
1691674013601342500,6.599342529296875,-1.3370166657686233,3.6352737339079377,-1.6669564761430025
1691674013611388400,6.609388427734375,-1.5465373680830001,3.7243022629261016,-1.5299024596244095
1691674013621433300,6.619433349609375,-1.3623790705621242,3.5081498675122855,-1.5972908192425965
1691674013631478300,6.629478271484375,-1.1667770034849643,3.2080975381404158,-1.6347364605396986
1691674013641524200,6.639524169921875,-0.9683142862796783,2.8965865339040753,-1.7301596590310333
1691674013651569400,6.6495693359375,-0.7250339377045631,2.485871351332962,-1.750729568850994
1691674013661614300,6.6596142578125,-0.5488531949341297,2.123892727141082,-1.701728514316678
1691674013671659300,6.6696591796875,-0.4134498682320118,1.8508479394212365,-1.7376888854920862
1691674013681705200,6.679705322265625,-0.2591489488363266,1.629629200528562,-1.6536644483715295
1691674013691750400,6.68975048828125,-0.09629409957434981,1.4136954163014888,-1.4843530068486928
1691674013701795300,6.69979541015625,-0.06485383617188781,1.1964771452218292,-1.30832014811635
1691674013711840500,6.709840576171875,-0.04231472690450027,1.02751554004997,-1.0509557446092366
1691674013721886500,6.719886474609375,-0.10183891075253486,0.9982093660667538,-0.722143476960063
1691674013731931100,6.72993115234375,-0.2913198646008968,1.0360086431071163,-0.3938999491095543
1691674013741976300,6.739976318359375,-0.5063444250285625,1.0757616845637559,-0.08144903367459773
1691674013752021200,6.750021240234375,-0.5982324351310729,1.2157292504414916,0.2693611307710409
1691674013762067200,6.760067138671875,-0.6602502076268195,1.2661556616038083,0.6215823310583829
1691674013772112400,6.7701123046875,-0.7522504459321498,1.2588432927638291,0.9667430914402008
1691674013782157300,6.7801572265625,-0.9385738125324249,1.1490507926583289,1.199215630275011
1691674013792202200,6.7902021484375,-1.1507914988458157,0.8275929794251918,1.3507634515702724
1691674013802248200,6.800248291015625,-1.2754922297477722,0.36627369103729723,1.487476691827178
1691674013812293400,6.81029345703125,-1.2857540960431098,-0.11709610111713409,1.5614543667078018
1691674013822338300,6.82033837890625,-1.2859271145224571,-0.5736415992319583,1.5614005906939505
1691674013832383500,6.830383544921875,-1.2724772658407688,-0.955638344579935,1.5138877288907766
1691674013842429400,6.840429443359375,-1.1150070687592029,-1.3470815481871365,1.3804244303405284
1691674013852474000,6.85047412109375,-0.8131190483927726,-1.7406483198195695,1.217377309909463
1691674013862519300,6.860519287109375,-0.448183327960968,-1.994071876746416,1.1314274576842784
1691674013872564200,6.870564208984375,-0.10322305858731269,-2.0675760888963937,1.16519996342659
1691674013882610400,6.8806103515625,0.18596563920378684,-2.130940599825978,1.205565876084566
1691674013892655400,6.8906552734375,0.4483703749656677,-2.2922388307631016,1.1487404115349054
1691674013902700500,6.900700439453125,0.616742489811778,-2.373342996522784,1.1161112306088208
1691674013912745200,6.9107451171875,0.7624433386445045,-2.237375606197119,1.2046657123744486
1691674013922791200,6.920791259765625,0.8125906406044959,-2.17349671600461,1.2053460958540438
1691674013932836400,6.93083642578125,0.9548129996716975,-2.280225736886263,1.1915040329843758
1691674013942881300,6.94088134765625,1.2320879723072051,-2.4079402626514432,1.2090087100148201
1691674013952926500,6.950926513671875,1.481736102348566,-2.4427263293504713,1.3497007907748222
1691674013962972400,6.960972412109375,1.62872816003561,-2.1998142295658587,1.7323381721138953
1691674013973017000,6.97101708984375,1.54655607278347,-1.980007695558667,1.963575031673908
1691674013983062300,6.981062255859375,1.4573065944910049,-2.013958480477333,2.0521979025006294
1691674013993108200,6.991108154296875,1.386458449807763,-2.1323720939338204,2.0497055011630056
1691674014003153400,7.0011533203125,1.285531977725029,-2.340934764871001,2.0164473746836182
1691674014013198300,7.0111982421875,1.236388884371519,-2.4855115781098602,2.136768283066153
1691674014023243500,7.021243408203125,1.3488123175024986,-2.4962317095667124,2.378033784687519
1691674014033289500,7.03128955078125,1.430879190814495,-2.594728908675909,2.3158161057054993
1691674014043334100,7.041334228515625,1.4923819995254277,-2.7035160311311484,2.2775568099379537
1691674014053379300,7.05137939453125,1.5762158825099468,-2.684222717118263,2.2544617655545474
1691674014063424300,7.06142431640625,1.6859353173792362,-2.6381471946418285,2.1926661113768815
1691674014073470500,7.071470458984375,1.851179071071744,-2.674339621007442,2.1137480574846266
1691674014083515400,7.081515380859375,2.0249661967039105,-2.711816241964698,2.0263444993197917
1691674014093560300,7.091560302734375,2.1450759465537965,-2.707209040430188,1.9495909299850462
1691674014103605200,7.101605224609375,2.243836911165714,-2.6879695024311543,1.9318916071653365
1691674014113651200,7.111651123046875,2.271995814809948,-2.6241502334713935,1.9872937609136103
1691674014123696400,7.1216962890625,2.1958587699383494,-2.5358552794247866,2.094253667941689
1691674014133741300,7.1317412109375,2.114447437925637,-2.4991250929206608,2.247018463811278
1691674014143786500,7.141786376953125,2.028765004464984,-2.352652675193548,2.4320780940860507
1691674014153832400,7.15183251953125,1.7573697375178337,-2.0778882240742442,2.6586960616737603
1691674014163877400,7.16187744140625,1.3940193865813315,-1.799475187319517,2.8866525843888517
1691674014173922300,7.17192236328125,1.0680886657178401,-1.47559277728796,3.070016516661644
1691674014183967200,7.18196728515625,0.7761075607292354,-1.2164870830714702,3.206564337223768
1691674014194013400,7.192013427734375,0.6088683954358101,-1.202100830322504,3.1837679835259913
1691674014204058400,7.202058349609375,0.6039116498112678,-1.321720312437415,3.062850862815976
1691674014214103300,7.212103271484375,0.7557950597364455,-1.5645681148141621,2.9098838223725556
1691674014224149200,7.222149169921875,0.9360966087639331,-1.7806962525695562,2.771176777949929
1691674014234194200,7.232194091796875,0.9890975465893744,-1.6693360647559166,2.8298937553346155
1691674014244239400,7.2422392578125,0.8392986147880553,-1.059483918979764,3.1059412320017814
1691674014254284300,7.2522841796875,0.5681915901977569,-0.25306699857413767,3.605004852372408
1691674014264330500,7.26233056640625,0.5029168617326766,0.08810264634490013,3.9519332069486377
1691674014274375400,7.27237548828125,0.4444786282241344,-0.11218845533132553,3.838728268051147
1691674014284420400,7.28242041015625,0.22641287346966563,-0.5259627332121134,3.5381852325528858
1691674014294465300,7.29246533203125,-0.03584174976442009,-1.0181839403420687,3.374533716487884
1691674014304511200,7.30251123046875,-0.18694179075956344,-1.585115228280425,3.061299541720748
1691674014314556400,7.312556396484375,-0.2384345890443772,-2.1074112556785343,2.633247147640586
1691674014324601300,7.322601318359375,-0.22495788888838142,-2.442984688025713,2.320591065022349
1691674014334646300,7.332646240234375,-0.1320224520921707,-2.3697972867399453,2.2446721929460764
1691674014344692200,7.342692138671875,-0.01649869659198448,-1.8270576062500476,2.5981670664310452
1691674014354737400,7.3527373046875,-0.10144202038943767,-1.147155772691965,3.0443408081352707
1691674014364782300,7.3627822265625,-0.2632394330203533,-0.7988432702809571,3.3164854321449995
1691674014374827300,7.3728271484375,-0.41156361609399317,-0.7594552627444267,3.258092279887199
1691674014384873500,7.38287353515625,-0.755913060092926,-0.5722273485198617,3.076510554856062
1691674014394918400,7.39291845703125,-1.1367138736546039,-0.2297340537816286,3.0961335392147302
1691674014404963300,7.40296337890625,-1.3583797717928885,0.19721300940513609,3.362673182824254
1691674014415008300,7.41300830078125,-1.5682394968032836,0.6538856410309672,3.8427451024770733
1691674014425054200,7.42305419921875,-1.7781600120902061,0.8664701148301363,4.212392653861642
1691674014435099400,7.433099365234375,-1.9599463197827338,0.9170058315858244,4.302998807460069
1691674014445144300,7.443144287109375,-2.3500750797905026,1.012263318121433,4.254497519141435
1691674014455190500,7.4531904296875,-3.014518501323461,1.1056155555576086,4.213230858251452
1691674014465235200,7.463235107421875,-3.880511061769724,1.1652785816207527,4.103912989920378
1691674014475280400,7.4732802734375,-4.595220004814863,1.2158803493499755,3.9455940670549867
1691674014485325300,7.4833251953125,-4.880386022961139,1.157795532388985,3.7268414260149
1691674014495371300,7.493371337890625,-5.005408240902423,1.0048347755558789,3.562972467806935
1691674014505416400,7.50341650390625,-5.094441446095705,1.1071494871266185,3.4665865617632865
1691674014515461400,7.51346142578125,-4.8576831927657125,1.4760511885799468,3.2990526513069867
1691674014525506300,7.52350634765625,-4.537831645685434,1.69153240673393,3.087373309653997
1691674014535552300,7.53355224609375,-4.252313745361566,1.8320666665837169,2.964638325867057
1691674014545597400,7.543597412109375,-3.7822476714164015,2.2252330407217142,2.934062570339441
1691674014555642400,7.553642333984375,-3.3485967266768215,2.549785897360742,3.0008441962361334
1691674014565687300,7.563687255859375,-2.9079379490017887,2.64266701015383,3.0927386360794302
1691674014575733500,7.5737333984375,-2.246514605942368,2.8135899785265326,3.060540247786045
1691674014585778200,7.583778076171875,-1.3171890987485646,3.2813071512579914,3.09680515486598
1691674014595823400,7.5938232421875,-0.2871744353592396,4.040055434776843,3.2909050006866454
1691674014605868300,7.603868408203125,0.5085530409887433,4.4995857939213515,3.105359632721543
1691674014615914200,7.613914306640625,1.0812786944195627,4.636831825880706,2.841183795633912
1691674014625959400,7.62395947265625,1.5473405011594294,4.6799639883816235,2.464436056855321
1691674014636004000,7.634004150390625,1.7475781190827488,4.6966228622376915,1.8963257882654665
1691674014646050300,7.64405029296875,1.78537008959949,4.662158282577991,1.5446616373389959
1691674014656095200,7.65409521484375,1.6204805561721325,4.588188791003823,1.4814239676594734
1691674014666140400,7.664140380859375,1.36816817535758,4.495077961108088,1.4123422481268644
1691674014676185300,7.674185302734375,1.3620803798764942,4.465838422620296,1.1288684208512305
1691674014686231300,7.684231201171875,1.527730960804224,4.530860929889977,0.9834048879057168
1691674014696276500,7.6942763671875,1.8179028244137763,4.5946354829251765,0.9848363820135593
1691674014706321200,7.704321044921875,1.9837579880028962,4.647158866366744,1.2354700159609318
1691674014716366300,7.714366455078125,1.7810645013600588,4.676784773823619,1.5020949997663497
1691674014726412300,7.724412353515625,1.4184014020353555,4.53290675650388,1.3412725696474312
1691674014736457500,7.73445751953125,1.2820529034376145,4.1293534283861515,1.0909212597727775
1691674014746502400,7.74450244140625,1.6044529659569262,3.730010119178891,0.951343277734518
1691674014756547300,7.75454736328125,2.228330714476108,3.516933185687661,0.9117989105924963
1691674014766593300,7.76459326171875,2.6507588389337062,3.3657436763107773,0.955782136964798
1691674014776638200,7.77463818359375,2.755859381830692,3.2363542030706998,0.9397866954535246
1691674014786683400,7.784683349609375,2.7353496777653694,3.0935499524623156,0.82532094283998
1691674014796728300,7.794728271484375,2.8005443267315626,2.935473898442089,0.6691971919313072
1691674014806774300,7.804774169921875,3.0392911235302686,2.7988006979346274,0.5573109344169497
1691674014816819500,7.8148193359375,3.379443115839362,2.6288094574540852,0.4486053527653217
1691674014826864000,7.824864013671875,3.753277597519755,2.3964631753474475,0.3493012211874127
1691674014836910300,7.834910400390625,3.9712756208002564,1.9744401245594023,0.3709159638851881
1691674014846955300,7.844955322265625,3.6797102570056914,1.503851488044858,0.3727709441021085
1691674014857000400,7.85500048828125,2.9757682071685787,1.2205460030734538,0.5247102489329875
1691674014867045400,7.86504541015625,1.9032430203080175,1.0168675970464944,0.7674642355464398
1691674014877091300,7.87509130859375,0.7213514497995376,1.0304799428135156,1.0409775175608693
1691674014887136300,7.88513623046875,0.30935587202906606,1.3685259027540684,1.40683444449082
1691674014897181200,7.89518115234375,0.526159132567048,1.7576485544592142,1.8455038019143044
1691674014907226400,7.905226318359375,1.0157669423282145,1.8321897084414958,2.0299083292812106
1691674014917272300,7.915272216796875,1.311311731147766,1.4463029699176548,1.8264267610006033
1691674014927317500,7.9253173828125,1.2563012070655821,0.6445137093126774,1.3049492103785276
1691674014937362400,7.935362548828125,1.413540518000722,-0.13942366825938224,0.5670987534597516
1691674014947408400,7.945408447265625,1.4805892704010009,-0.6872253083139658,0.06627236120030283
1691674014957453300,7.955453369140625,1.3561965825349092,-0.8354892856329679,0.1108596909455955
1691674014967498200,7.965498291015625,1.1351929476976395,-0.4527984205409884,0.41613589244559407
1691674014977543400,7.97554345703125,0.7204501170456409,0.15778817698955536,0.9249516760237514
1691674014987589400,7.98558935546875,0.5577046099096536,0.7739253943845629,1.5385431544587016
1691674014997634300,7.99563427734375,0.8890852667421102,1.216981588590145,1.9451244520954787
1691674015007679200,8.00567919921875,1.2881839535385369,1.2969956210255622,1.8826446150459348
1691674015017724200,8.01572412109375,1.296177290380001,0.9378794005274772,1.3898169664554296
1691674015027770400,8.025770263671875,1.1293190872281789,0.3871858384236693,0.7104113919816911
1691674015037815300,8.035815185546875,0.9588210662692784,-0.14391718028634787,0.19222367668524384
1691674015047860500,8.045860595703125,0.8724211321890354,-0.5498553577139973,-0.1730811693198979
1691674015057906400,8.055906494140626,0.9512094222217797,-0.5622548205599188,-0.45980011599659915
1691674015067951400,8.065951416015626,1.02758071424067,-0.16865648474544287,-0.16904869893342256
1691674015077996300,8.075996337890626,1.2422013700425625,0.47342327541857954,0.45016018099188804
1691674015088041200,8.086041259765626,1.567895797932148,1.1030685014232993,0.8509279700443149
1691674015098087400,8.09608740234375,1.7390847237646578,1.342130940042436,1.0517182534143328
1691674015108132400,8.10613232421875,1.8571125527739525,1.2947738533228634,1.0956735688664019
1691674015118177500,8.116177490234374,1.7848486960738896,1.0074658547118305,0.8688746917538345
1691674015128222200,8.12622216796875,1.270904317435622,0.6849474265098572,0.39377471529468894
1691674015138268200,8.13626806640625,0.6567541822046041,0.4751356322944164,-0.0007572481080889701
1691674015148313300,8.146313232421875,0.27701486039459705,0.31941052531450986,-0.12916998527050016
1691674015158358300,8.156358154296875,0.003033668607473373,0.19905308431386948,-0.024554011020064354
1691674015168403500,8.166403564453125,-0.24338263990581036,0.2296422838449478,0.1300194417066872
1691674015178449400,8.176449462890625,-0.4209469459891319,0.42701632903069253,0.2911583904288709
1691674015188494300,8.186494384765625,-0.5470487758606672,0.692417031738162,0.6578937076285482
1691674015198539300,8.196539306640625,-0.3080558953464031,0.9083309422209859,1.0273739396221935
1691674015208585200,8.206585205078126,0.09163082047104835,0.851285697440803,1.03340445195809
1691674015218630400,8.21663037109375,0.3925573023289442,0.5234188939481973,0.6856650732599199
1691674015228675300,8.22667529296875,0.8392986147880553,0.11543722799420356,0.23728987598866222
1691674015238720500,8.236720458984376,1.3068828087896107,-0.24994682072699068,-0.03663037939146161
1691674015248766500,8.246766357421874,1.5738941615641115,-0.5040080910354853,-0.2205865784689784
1691674015258811100,8.25681103515625,1.5635826109081505,-0.6877963862001896,-0.34651787407919765
1691674015268856300,8.266856201171874,1.220648294404149,-0.78493427965492,-0.24906127006411552
1691674015278901200,8.2769013671875,0.8333996198773383,-0.6444628559082746,-0.0356089273892343
1691674015288947500,8.286947509765625,0.5504892717033625,-0.4074634872987866,0.1595309290036559
1691674015298992400,8.296992431640625,0.31352760475575925,-0.19771160657703876,0.3090956136576831
1691674015309037300,8.307037353515625,0.18743921888768672,0.004527122035622597,0.48830023429393765
1691674015319083300,8.317083251953125,0.3734720781087875,0.22851591016352174,0.690063454349339
1691674015329128200,8.327128173828125,0.6813391728848218,0.24538024346381423,0.6860542187079787
1691674015339173400,8.33717333984375,1.040389926931262,0.05829904423356056,0.4573645594127476
1691674015349218300,8.34721826171875,1.3963964909762143,-0.2764981430441141,0.21807167303860187
1691674015359264300,8.35726416015625,1.6706658520549535,-0.5791580245658755,-0.023533563664834944
1691674015369309400,8.367309326171876,1.7835393670409916,-0.7277078330889344,-0.1997027803942561
1691674015379354000,8.37735400390625,1.6418074218392371,-0.7306383335828781,-0.1807860446088016
1691674015389399300,8.3873994140625,1.2237784091234207,-0.5549421594589948,0.03513867952898145
1691674015399445200,8.3974453125,0.8678361424863338,-0.2889852841734886,0.3274064925044775
1691674015409490400,8.407490478515625,0.566156211912632,-0.09407938266694545,0.5422548195824026
1691674015419535400,8.417535400390625,0.3335100700765848,0.07632745287716389,0.7899505003817379
1691674015429581300,8.427581298828125,0.33946225647926326,0.2519359487175941,0.9715247727587819
1691674015439626500,8.43762646484375,0.6019505788713694,0.24243659122735262,0.8812738623388111
1691674015449671400,8.44767138671875,0.8345382685184478,-0.008210778984427451,0.4716999587573111
1691674015459716600,8.457716552734375,1.0334633425384758,-0.33390140748173,0.01764337311508134
1691674015469762600,8.467762451171875,1.338490829974413,-0.5925207794860005,-0.3081580405466258
1691674015479807500,8.477807373046875,1.432727449029684,-0.8060264597833157,-0.556042229655385
1691674015489852400,8.487852294921876,1.286727324989438,-0.8260869587764144,-0.6734728234238923
1691674015499897600,8.497897705078126,1.0456634834200143,-0.7928717946559191,-0.5300378736965358
1691674015509943600,8.507943603515624,0.2919756981611252,-0.8769149364769458,-0.2790057419508695
1691674015519988500,8.517988525390624,-0.7136205632865429,-0.9830103356301784,-0.025533395712543278
1691674015530033400,8.528033447265624,-1.4977040713310241,-0.9155003954589367,0.27832258199229837
1691674015540079400,8.538079345703125,-1.9792565849304198,-0.878923061428964,0.4314117875106632
1691674015550124300,8.548124267578125,-2.3227105413943527,-0.9097489923253654,0.33857904390394683
1691674015560169500,8.55816943359375,-2.4263491950452325,-0.9423638524651526,0.2144473450616002
1691674015570214400,8.56821435546875,-2.222214277422428,-1.0681079549401997,0.1879894001163542
1691674015580260600,8.578260498046875,-2.0864427019298075,-1.247813949227333,0.020071586642693727
1691674015590305500,8.588305419921875,-2.1507611525833608,-1.3157479600295423,-0.2549424735898152
1691674015600350500,8.5983505859375,-2.222016709023714,-1.1494301473647355,-0.34330928729623555
1691674015610396400,8.608396484375,-2.224948670822382,-0.7888768798008561,-0.08473068569377064
1691674015620441300,8.61844140625,-2.280027583965659,-0.38498599029183384,0.2814899599820375
1691674015630486500,8.628486572265626,-2.32515910359025,0.09316372912675142,0.538803071693331
1691674015640531500,8.638531494140626,-1.9965087485045194,0.5618471165418625,0.6774667153656482
1691674015650577700,8.64857763671875,-1.4202344626814125,0.7750143586650491,0.44715559234842656
1691674015660622300,8.658622314453124,-0.9160960232645272,0.7647913630753755,0.008625058873742819
1691674015670667500,8.66866748046875,-0.20451134971976279,0.5971960778206586,-0.36590105833262204
1691674015680712400,8.67871240234375,0.5405582447975874,0.3557873683363199,-0.7559212433993816
1691674015690758400,8.68875830078125,1.1894529456734657,0.1999579241991043,-0.9634536945059895
1691674015700803600,8.698803466796875,1.695098282521963,0.1484790813744068,-1.0175817366652191
1691674015710848500,8.7088486328125,2.1083003134727476,0.24056612118035553,-1.038394076938927
1691674015720894500,8.71889453125,2.305381805452704,0.39965778198391194,-1.0324421827971935
1691674015730939400,8.728939453125,2.083392082187533,0.5227952090919018,-0.9147532303534448
1691674015740984300,8.738984375,1.6225994480222463,0.7186041969180107,-0.7466757876049727
1691674015751029500,8.749029541015625,1.230527298861742,1.0177981558948754,-0.5814062418840825
1691674015761075500,8.759075439453126,1.0159557428985833,1.3517492477372288,-0.342052419102937
1691674015771120600,8.76912060546875,1.1351724894315003,1.738125523343682,-0.08886603193283081
1691674015781165300,8.779165283203126,1.4051380158364772,2.108795988035202,-0.07242766895964742
1691674015791211300,8.789211181640624,1.7846002742707727,2.267631043729186,-0.23441358989998698
1691674015801256400,8.79925634765625,2.136221170577407,2.0307076629653573,-0.41146906967833635
1691674015811301400,8.80930126953125,2.169384019988775,1.6356106130257249,-0.7122054357916117
1691674015821346600,8.8193466796875,1.9542267730921505,1.4769213955432177,-1.0507703050397337
1691674015831392500,8.829392578125,1.8510960689634084,1.5364078959956764,-1.0748277647145092
1691674015841437400,8.8394375,1.8239222308337688,1.6922770876213906,-0.7900655050635338
1691674015851482400,8.849482421875,1.736971677133441,1.948142484742403,-0.49493952617794273
1691674015861527600,8.859527587890625,1.731447360754013,2.2419559197247025,-0.2558411394625902
1691674015871573500,8.869573486328125,1.7730273253768682,2.4383213723897934,-0.1631602254167199
1691674015881618400,8.879618408203125,1.8597908320724963,2.470847969724238,-0.23131664679795502
1691674015891663600,8.88966357421875,1.9247715460270642,2.3393659081190825,-0.21436989591121672
1691674015901709600,8.89970947265625,1.6647463988780975,2.132965968173742,-0.2752732774242759
1691674015911754500,8.90975439453125,1.3737047666966915,2.0852473546653987,-0.4903089437678456
1691674015921799400,8.91979931640625,1.450325649562478,2.1539576105371117,-0.7031152436241507
1691674015931844400,8.92984423828125,1.8563947598934172,2.2156991964399815,-0.9171993083313107
1691674015941890600,8.939890625,2.4859867944061755,2.3031468860074877,-1.0925418467119334
1691674015951935500,8.949935546875,3.200558959329128,2.4618945556789633,-1.0597960536688567
1691674015961980400,8.95998046875,3.672589611345529,2.661018367141485,-0.7621639371812343
1691674015972026400,8.9700263671875,3.8134780914604662,2.9111273926928636,-0.4680465508162975
1691674015982071300,8.9800712890625,3.700477150702476,3.0333728393971917,-0.34942543208897114
1691674015992116500,8.990116455078125,3.2716461734652516,2.914685669696331,-0.326982129612565
1691674016002161400,9.000161376953125,2.8009447242259977,2.759642115239799,-0.379053093111515
1691674016012207600,9.01020751953125,2.4321873996794223,2.768347692003846,-0.46688861295282835
1691674016022252500,9.02025244140625,2.149893137577176,2.8711364508271218,-0.3435603394478559
1691674016032297500,9.03029736328125,1.959210991245508,3.0017820616081354,0.0708674339056015
1691674016042343400,9.040343505859376,1.535002413111925,3.037500440721214,0.866364316368103
1691674016052388400,9.050388427734376,0.4410971690922975,3.0545082741454244,1.5159353090703487
1691674016062433500,9.06043359375,-0.7606061863452196,3.067028148500621,1.675077823278308
1691674016072478500,9.070478515625,-1.5699144442781805,3.1036238949701187,1.7994336862653493
1691674016082524400,9.0805244140625,-1.994051418480277,3.2144781790882346,2.091774126085639
1691674016092569300,9.0905693359375,-2.2018659013986586,3.1724867110550403,2.110821356382966
1691674016102614500,9.100614501953125,-1.7000351544022558,2.5768939767777916,1.8218501007348298
1691674016112659500,9.110659423828125,-0.7261199793756008,1.7105549409814178,1.384457631379366
1691674016122705400,9.120705322265625,-0.017218845826387403,1.0874680505789815,1.0955863289743661
1691674016132750600,9.13075048828125,0.27928865054547786,0.8702112010546028,1.3201941257834433
1691674016142795500,9.14079541015625,-0.07125234156996012,1.1277769723527133,1.8306740431815385
1691674016152841500,9.150841552734375,-0.5408318010419607,1.647693265007436,2.270661205205321
1691674016162886400,9.160886474609375,-1.046728043911606,2.3978669046655297,2.837088050752878
1691674016172931300,9.170931396484375,-1.548374520382285,2.9249647793874143,3.0907115141659975
1691674016182976500,9.1809765625,-1.8908692764252424,2.9636890623182057,2.9230086768835783
1691674016193022500,9.1910224609375,-2.2024141829311845,2.591303025880456,2.6509727739453313
1691674016203067600,9.201067626953124,-2.526177935019135,2.029474614039063,2.1994769604355096
1691674016213112300,9.2111123046875,-2.7693858028799294,1.5026809829607606,1.754916499146819
1691674016223157500,9.221157470703124,-2.8057272823274135,1.0906969494976102,1.4344605564326047
1691674016233203500,9.231203369140625,-2.908912931513786,1.0302014181330799,1.1177449692904948
1691674016243248400,9.241248291015625,-2.9334149200856685,1.5242241217270494,1.0648486608833074
1691674016253293600,9.25129345703125,-3.0334055726230145,2.208696916462481,1.193486146712303
1691674016263339500,9.261339599609375,-3.231087368583679,2.8546207848340273,1.4846914450228212
1691674016273384400,9.271384521484375,-3.3009517629265783,3.3603082072585817,1.9922727183699607
1691674016283429400,9.281429443359375,-3.217465670466423,3.796503868044913,2.6782991722881793
1691674016293474600,9.291474609375,-3.1265549809634683,3.7777182112932204,2.7495938916951417
1691674016303520500,9.3015205078125,-2.8389620279312133,3.149578713676333,2.635984463649988
1691674016313565400,9.3115654296875,-2.236483625793457,2.3192042868390677,2.732726343524456
1691674016323610600,9.321610595703126,-1.7485703449904917,1.5894205242589114,2.896516975799203
1691674016333656600,9.331656494140624,-1.287206632938981,0.8041630039989948,2.9738334397137165
1691674016343701200,9.341701171875,-0.8047001796156168,0.020206921726465224,3.0580215429633855
1691674016353746400,9.351746337890624,-0.3759223938703537,-0.39369653549194333,3.3688767136394975
1691674016363791400,9.361791259765624,-0.054483280771109276,-0.4235661885768175,3.8343244801342484
1691674016373837600,9.371837646484375,0.01759527906498988,-0.37546588227450844,4.0805321143329145
1691674016383882500,9.381882568359375,0.046838903497788124,-0.33415713580846784,4.447503724506497
1691674016393927400,9.391927490234375,0.10895371119379997,-0.12865794409513473,5.196692444780469
1691674016403973400,9.401973388671875,-0.0877986949622631,-0.07883738987147808,5.818519105988741
1691674016414019300,9.412019287109375,-0.49624739390611644,-0.3895803323447704,6.149118841576576
1691674016424064500,9.422064453125,-0.8702268370151519,-0.9908388372987508,6.274462546557188
1691674016434109200,9.432109130859375,-1.2556371901988983,-1.8380933795273302,6.123016432070732
1691674016444155100,9.442155029296876,-1.533006855380535,-2.85282513358891,5.744658335486054
1691674016454200300,9.452200439453126,-1.6130477758228778,-3.835071499109268,5.250761304098368
1691674016464245200,9.462245361328126,-1.5901684200167654,-4.61922865691185,4.731413605111837
1691674016474291200,9.472291259765624,-1.5799743582606314,-5.074618555250764,4.336506524786353
1691674016484336400,9.48233642578125,-1.5697990012049674,-5.175757793301344,3.957307885724306
1691674016494381300,9.49238134765625,-1.4598118553102015,-5.1801984060972925,3.3946079517453907
1691674016504426200,9.50242626953125,-1.27773445571661,-4.979327458706498,2.993471037119627
1691674016514472200,9.51247216796875,-1.270842942637205,-4.2483670535624025,3.0129063899517057
1691674016524517400,9.522517333984375,-1.3263526484131811,-3.4216146166145798,2.9347108051151034
1691674016534562300,9.532562255859375,-1.0554431191563605,-3.059490446472168,2.511797527489066
1691674016544608300,9.542608154296875,-0.6974427509456873,-2.8914205294430255,2.018200940352678
1691674016554653400,9.5526533203125,-0.24613864234937352,-2.6519015792280434,1.7594307617008684
1691674016564698000,9.562697998046875,0.13939330965373664,-2.425437925419211,1.5475632039994
1691674016574743300,9.572743408203126,0.39288054293394087,-2.4224966112703084,1.2002034722685813
1691674016584789200,9.582789306640626,0.6894401348192244,-2.5181635553896426,0.9436205745279789
1691674016594834400,9.59283447265625,1.0376882667571306,-2.5989661078542468,0.8086883724689483
1691674016604879400,9.60287939453125,1.3491905031651257,-2.708500249284506,0.7657312742739916
1691674016614925300,9.61292529296875,1.5111667794942856,-2.756246919843554,0.6273211669713258
1691674016624970500,9.622970458984375,1.507194953253865,-2.7490836040854454,0.44987025813460346
1691674016635015200,9.63301513671875,1.4828303273260592,-2.7119752319186925,0.4805734394341707
1691674016645060400,9.643060302734375,1.3972633369386196,-2.4515496872752904,0.850252555000782
1691674016655106300,9.653106201171875,0.9868605082523078,-1.9243109427779912,1.1386205840587615
1691674016665151200,9.663151123046875,0.5846569142431021,-1.8252619550049305,1.1368068126350641
1691674016675196400,9.673196533203125,0.501617323441431,-1.9825164635092019,1.180289396008849
1691674016685242400,9.683242431640625,0.5978863981723785,-1.9962088887751102,1.3037836737304924
1691674016695287300,9.693287353515625,0.6792354786038398,-1.9451625921487807,1.4484849901318548
1691674016705332200,9.703332275390625,0.7365444158215075,-2.033690185907483,1.43629712421
1691674016715377400,9.71337744140625,0.7700444612979889,-2.254074227541685,1.3236539108484984
1691674016725423400,9.72342333984375,0.8673095613289624,-2.4272984585940836,1.320636608853936
1691674016735468300,9.73346826171875,0.9344594360161572,-2.4719132608681917,1.3956670076578854
1691674016745513500,9.743513427734374,0.851187278567627,-2.3403695322036744,1.5655565413296222
1691674016755559400,9.753559326171874,0.613581395432353,-2.114288155710697,1.7329735474079846
1691674016765604400,9.763604248046875,0.38173261451907453,-1.8981173478573559,1.9215572601556776
1691674016775649300,9.773649169921875,0.17929565992057322,-1.6053957997649908,2.1544483166635033
1691674016785694500,9.783694580078125,-0.12718246471509337,-1.2394634695112705,2.396823825353384
1691674016795740400,9.793740478515625,-0.44132688619494437,-0.9775590844869613,2.426563130056858
1691674016805785300,9.803785400390625,-0.6673837858337909,-0.8706932854831219,2.482255791184306
1691674016815830300,9.813830322265625,-0.7890180418372154,-0.7739414687365294,3.00763926320374
1691674016825875200,9.823875244140625,-0.9648930796593427,-0.9788187291592358,3.6669974904268976
1691674016835921400,9.83392138671875,-1.0611176576614378,-1.4275766421377658,4.153966183856129
1691674016845966300,9.84396630859375,-1.1837877595186233,-1.6473825916230678,4.686183885809779
1691674016856011300,9.85401123046875,-1.3844313278943299,-1.8954829077005386,4.988590377092361
1691674016866057500,9.864057373046874,-1.6025854185193775,-2.3153145859241486,4.837326633435487
1691674016876102100,9.87410205078125,-1.9204203650802372,-2.6015029328554866,4.567900620734691
1691674016886147300,9.884147216796874,-2.408770868256688,-2.595404031458497,4.406216020828485
1691674016896192300,9.894192138671874,-2.869158428752422,-2.288802426573634,4.301967710846662
1691674016906238200,9.90423828125,-3.284509162169695,-1.5887492008686064,4.318041478291153
1691674016916283400,9.914283447265625,-3.8877053571879863,-0.5767424878567456,4.640878178662061
1691674016926328300,9.924328369140625,-4.439986188483238,0.1553331850528717,5.24158080329895
1691674016936374500,9.93437451171875,-4.774574701446294,0.7430541630417108,5.938282965010404
1691674016946419200,9.944419189453125,-5.371804097014666,1.2906225788623094,6.815173936089873
1691674016956464400,9.95446435546875,-6.045630410051346,1.2863228358417749,7.38359458580315
1691674016966509300,9.96450927734375,-6.541477990984916,0.5673188259512185,7.116019169405102
1691674016976555300,9.97455517578125,-6.534313506183028,-0.46970688524395227,6.33939825232625
1691674016986600400,9.984600341796876,-6.259085529205203,-1.2730351919844747,5.031882990851998
1691674016996645000,9.99464501953125,-5.729627939614653,-1.4100760567605495,4.128564616096019
1691674017006691300,10.00469140625,-5.209028194740414,-1.0710913546651601,4.22933034465909
1691674017016736300,10.014736328125,-5.338329697436094,-0.4732473343297839,4.713156063887476
1691674017026781400,10.024781494140624,-5.630183230522275,0.33113647281304,5.103417948755622
1691674017036826400,10.034826416015624,-5.856835684901475,1.3572412692822515,5.18203205126524
1691674017046872300,10.044872314453125,-6.49717707696557,2.6688427771568297,5.153554729321598
1691674017056917500,10.05491748046875,-7.1690095858365295,4.108393934726715,5.344959929230809
1691674017066962200,10.064962158203125,-7.6460741403669115,5.245704605230689,5.579813810244202
1691674017077008100,10.075008056640625,-7.873854721993207,5.766940894442796,5.742442997524142
1691674017087053300,10.08505322265625,-7.562344886800647,5.713825390326976,5.453026336196064
1691674017097098200,10.09509814453125,-7.041788396546244,5.687892492169142,4.941460961648821
1691674017107143400,10.105143310546875,-6.533104130393267,5.757288099956512,4.689243857902288
1691674017117189400,10.115189453125,-5.6659442797333,6.064837799346447,4.43899425483644
1691674017127234300,10.125234375,-4.115852434039116,6.6388762889415025,3.972623528277874
1691674017137279200,10.135279296875,-2.406370236855745,7.203382980081439,3.424818965613842
1691674017147325200,10.1453251953125,-1.0809960780858994,7.659265045851469,2.988377513372898
1691674017157370400,10.155370361328124,-0.3661404200464487,8.05408327884972,2.6544150233536956
1691674017167415300,10.165415283203124,0.08291618361771107,8.410393209755421,2.6029431947916746
1691674017177460500,10.17546044921875,0.35834932777881623,8.854139432051777,2.5855723732739686
1691674017187506400,10.18550634765625,0.7029466090589761,9.146761026901006,2.2890438341140746
1691674017197551400,10.19555126953125,0.9922954658478498,8.984044161337614,1.8590461511850356
1691674017207596300,10.20559619140625,1.1204594889461994,8.494646779456733,1.5058175274208188
1691674017217642200,10.215642333984375,1.6445669496804476,7.774939005210995,1.3169859773918986
1691674017227687400,10.2256875,2.1460539978057143,7.171297989034652,1.0332029380366206
1691674017237732400,10.235732421875,2.5382377906471487,6.88636694868803,0.7651219102039932
1691674017247778300,10.2457783203125,2.891215946781635,6.772630679392814,0.6937427273839711
1691674017257823200,10.2558232421875,3.0394588813126084,6.671568013709783,0.6748433811247349
1691674017267868200,10.2658681640625,3.109457131168246,6.546153581580519,0.6277262406408787
1691674017277913300,10.275913330078126,2.9848779808193444,6.245284382867813,0.6801176682658493
1691674017287959300,10.285959228515624,2.687126621866226,5.858232107695937,0.8727503641434013
1691674017298004500,10.29600439453125,2.5952672533363104,5.574730223369598,1.0011506802156567
1691674017308049400,10.30604931640625,2.717759660539031,5.254152700102329,0.9312005072854459
1691674017318095400,10.316095458984375,3.041578357684612,4.851567340233922,0.7921005180224776
1691674017328140300,10.326140380859375,3.655769993969798,4.512361104342341,0.6549202447757124
1691674017338185200,10.336185302734375,3.9810950040251014,4.202535861235857,0.5487120328977704
1691674017348230400,10.34623046875,3.9842186890035864,3.8711394223123787,0.33634741239435967
1691674017358276400,10.3562763671875,3.77311217880249,3.6256828987419603,0.07484773571342229
1691674017368321500,10.366321533203125,3.2822681052446363,3.3533436289429663,-0.20685283481199293
1691674017378366200,10.3763662109375,2.68715701700449,3.1583827823787924,-0.41871546061001713
1691674017388412200,10.386412109375,2.3587585908532143,3.1530694784015414,-0.39258031787835057
1691674017398457300,10.396457275390626,2.2366016992151736,3.360406991457939,-0.09694191422490403
1691674017408502300,10.406502197265626,2.3207284276664257,3.6161388253271576,0.21447679035179315
1691674017418547700,10.416547607421874,2.287441659614444,3.5275995411306615,0.32276253915615377
1691674017428593700,10.42659375,2.343176406317949,3.181349816468358,0.404542375687696
1691674017438638600,10.436638671875,2.626761877274513,2.7490169685900208,0.41711872947048395
1691674017448683500,10.44668359375,2.5718513064354656,2.302284423959255,0.1333077791949734
1691674017458729500,10.4567294921875,2.2939994106948376,1.9509645564258098,-0.2950659923266619
1691674017468774700,10.466774658203125,2.160140975347161,1.8544155687749384,-0.515961929005757
1691674017478819600,10.476819580078125,1.8073545423924922,1.7486042472600936,-0.6871932326752692
1691674017488864800,10.48686474609375,1.125970945844054,1.699192273837328,-0.7504287834629416
1691674017498910700,10.49691064453125,0.5176818116009235,1.9226187519073485,-0.4791827887933701
1691674017508955400,10.506955322265625,0.16135609860420225,2.1632062081366774,-0.00003719020523130893
1691674017519000600,10.51700048828125,-0.08171031495928764,2.214789095857739,0.27220380685105916
1691674017529046500,10.527046630859376,0.008814005574584007,2.170077847471833,0.3072221479360014
1691674017539091700,10.537091796875,0.6657745240062475,2.102488412323594,0.3251894740421325
1691674017549136600,10.54713671875,1.5115046331465243,1.8514152179151773,0.13721293340735136
1691674017559182600,10.5571826171875,1.979260092061758,1.3720634292304514,-0.3155980543542653
1691674017569227800,10.567227783203125,1.875135116198659,0.786404059946537,-0.7157037993013858
1691674017579272400,10.5772724609375,1.386639651593566,0.31399639131128787,-1.1136760393511502
1691674017589317600,10.587317626953125,0.7504641470372676,0.08218786934316158,-1.4029004660427569
1691674017599363600,10.597363525390625,0.13777590105235576,0.053041269835829734,-1.2889724735677242
1691674017609408500,10.607408447265625,-0.24408055904209613,0.16964228091239927,-0.9199817786566913
1691674017619453700,10.61745361328125,-0.5707727657973766,0.4627648110210895,-0.5357848929159343
1691674017629499600,10.627499755859375,-0.8146820599257946,0.7874298958629369,-0.16837949443496764
1691674017639544600,10.637544677734375,-0.904035583114624,0.9907581732779741,0.08051767110861838
1691674017649589500,10.647589599609375,-0.8940759146362542,0.9947387673467397,0.15112506583854554
1691674017659634700,10.657634765625,-0.7790899375408887,0.9245961405843496,0.08197035413496195
1691674017669680600,10.6676806640625,-0.3876432268023491,0.9567314005136489,0.08212269515246153
1691674017679725600,10.6777255859375,0.2897568530678749,1.0849550448447465,0.22871998136825858
1691674017689770500,10.6877705078125,1.0136030422925948,1.258910512781143,0.4154557281617075
1691674017699816400,10.69781640625,1.7138702030092476,1.4032196149945257,0.5273813678383827
1691674017709861600,10.707861572265625,2.342560904768109,1.567498323047161,0.5978181552417576
1691674017719906600,10.717906494140625,3.1731103959113356,1.7219699228346346,0.5681194017443806
1691674017729952500,10.727952392578125,4.107548131552338,1.9646727637827395,0.5301332968950271
1691674017739997700,10.737997802734375,5.045107214084267,2.3307541471183297,0.337275998481363
1691674017750042600,10.748042724609375,5.907068327057361,2.5363737503409385,-0.17911022035107016
1691674017760087600,10.758087646484375,6.392845180353522,2.614967394584417,-0.676753744790703
1691674017770133500,10.768133544921875,6.466380956685542,2.8049866930931806,-0.8079527516707777
1691674017780178400,10.778178466796875,6.321280411833524,3.2802123417586087,-0.6870689487084746
1691674017790223600,10.7882236328125,5.854454342722892,3.731475515556335,-0.6911833982899784
1691674017800269600,10.79826953125,4.664868126058578,4.014672279456257,-0.9659718148067593
1691674017810314800,10.808314697265626,3.350280149719119,4.372030258110166,-1.2468953730776906
1691674017820359400,10.818359375,2.9996430037528277,4.8203310749709605,-1.3240320965111254
1691674017830405400,10.8284052734375,3.479265426072478,5.101343480569124,-1.5152619398534297
1691674017840450600,10.838450439453124,4.1363808428049085,5.2728363577842705,-1.621419298326969
1691674017850495500,10.84849560546875,5.103503288951516,5.458098232632875,-1.7354507511764763
1691674017860540700,10.858540771484375,6.223154968646169,5.519587012818455,-1.8928081355333326
1691674017870586600,10.868586669921875,6.579308832207322,5.277129671064019,-1.5862345876991748
1691674017880631800,10.8786318359375,5.445102557459474,4.733521098785102,-0.6015870062559843
1691674017890676500,10.888676513671875,3.098575087147951,4.262667381593585,0.5850730938285589
1691674017900722400,10.898722412109375,0.4464829537838697,4.215190760147571,1.5735136378139256
1691674017910767600,10.908767578125,-1.4969930004522203,4.459613264495134,2.86213130659461
1691674017920812500,10.9188125,-2.7218285174131394,4.276313045108318,3.5292835486948486
1691674017930857700,10.928857666015626,-3.2928356764882802,3.383283716915548,3.514619063526392
1691674017940903700,10.938903564453126,-3.056377282887697,2.3969626493021843,3.1366672096550463
1691674017950948400,10.9489482421875,-2.2931378254294392,1.6456640972673893,2.834421461892128
1691674017960993500,10.95899365234375,-2.1092109985768794,0.8718947702273726,2.981570171445608
1691674017971039500,10.96903955078125,-2.9549393541514872,0.5139578957069665,3.2692911347717044
1691674017981084700,10.979084716796875,-3.472049503344297,0.6040902943138032,3.124938777938485
1691674017991129600,10.989129638671875,-3.0790923880428074,0.8890631279755383,2.8427678499549627
1691674018001174800,10.9991748046875,-2.460435004520416,1.2028484338194132,2.8372534704476595
1691674018011220700,11.009220703125,-1.6044278315156697,1.439635328722,3.409368883025646
1691674018021265400,11.019265380859375,-0.8053378929972648,1.7369480039969085,4.207388561964035
1691674018031310600,11.029310546875,-0.4246083911061287,1.6076210745990276,5.116536373525857
1691674018041356500,11.0393564453125,-0.959924059075117,1.1250852490507066,6.31906858100295
1691674018051401700,11.049401611328125,-1.6550199546337128,0.697556002061814,7.369516960611939
1691674018061446700,11.05944677734375,-2.014899560719728,0.16952479201257228,7.486026786273717
1691674018071492600,11.06949267578125,-1.6724375379025935,-0.7297136199533939,7.247028645062446
1691674018081537500,11.07953759765625,-0.7311585580646991,-1.6109601558938622,7.253169632035493
1691674018091582500,11.08958251953125,0.15038692428972572,-2.266966734601557,7.112844631022215
1691674018101627600,11.099627685546874,0.8412474107682705,-2.7451313593283295,6.878946443298458
1691674018111673600,11.109673583984375,1.07614571544528,-2.966133532860875,6.489553742480278
1691674018121718500,11.119718505859375,0.7343617380201816,-2.9991297935336827,5.975394259786605
1691674018131763500,11.129763427734375,0.27889296575877814,-2.8162229573786255,5.664588773471117
1691674018141809400,11.139809326171875,-0.22274843267798422,-2.605062671163678,5.480054628375172
1691674018151854600,11.1498544921875,-0.568800588941574,-2.637126034900546,5.175554964205622
1691674018161899500,11.1598994140625,-0.7142717206716537,-2.7402748592078683,4.962191030466556
1691674018171945500,11.169945556640625,-0.6159492936074733,-2.914468812075257,4.994731364065409
1691674018181990700,11.17999072265625,-0.14814707294106483,-3.1845828070402145,5.073249604985118
1691674018192035600,11.19003564453125,0.24518236453784628,-3.3497365443617104,4.95683154926002
1691674018202080500,11.20008056640625,0.48448622896373267,-3.348485667517781,4.815953590539097
1691674018212126500,11.21012646484375,0.7954419374048709,-3.298800137850642,4.702814118093252
1691674018222171600,11.220171630859374,1.0621090798515826,-3.2194600591540334,4.5243654303908345
1691674018232216600,11.230216552734374,1.2200099965006113,-3.055119976302981,4.365729696661234
1691674018242262500,11.240262451171875,1.0913514678835867,-2.928430117410421,3.9474563537955283
1691674018252307700,11.2503076171875,0.6614589988946914,-2.6601877615362404,3.4768875910252333
1691674018262352400,11.260352294921875,0.410131537464261,-2.0743203024595975,3.0802000570237635
1691674018272398600,11.270398681640625,0.3658441039809957,-1.5072709410995244,2.7141537450015543
1691674018282443500,11.280443603515625,0.2937303598087281,-1.1132020651638508,2.233919328263402
1691674018292488400,11.290488525390625,0.28364984142966565,-0.7865864307761192,1.763335367923975
1691674018302533600,11.30053369140625,0.38186117280218745,-0.4907610714495182,1.4441443305790425
1691674018312579600,11.31057958984375,0.5578887343049049,-0.2976163343966007,1.3249720077097416
1691674018322624800,11.320624755859376,0.730530197033286,-0.24749708948731422,1.2102186703264712
1691674018332669400,11.33066943359375,0.8264029659230262,-0.15381459718346596,1.1344541120290756
1691674018342715400,11.34071533203125,0.8131564577937126,-0.029518939951062202,1.1000573369085789
1691674018352760600,11.350760498046874,0.785258323977515,-0.011503975310921668,1.0882371352553366
1691674018362805500,11.360805419921874,0.6950958955585956,0.16409575270116328,1.164970246323943
1691674018372850700,11.3708505859375,0.4608919298212975,0.4166507100999355,1.2369266445100306
1691674018382896600,11.380896728515625,0.07950308723859488,0.40728199325203895,1.0232640200853347
1691674018392941600,11.390941650390625,-0.26686113064885136,0.23201310462951658,0.6797258924692868
1691674018402986500,11.400986572265625,-0.5450755030263215,0.140218618029356,0.45016894882023334
1691674018413031700,11.41103173828125,-0.878015006673336,0.26650164968669415,0.3570668867528438
1691674018423076400,11.421076416015625,-1.2319383347034454,0.4479524418145418,0.1656067417860031
1691674018433121500,11.43112158203125,-1.512801687219739,0.45753860080540176,-0.1675672282040119
1691674018443167500,11.44116748046875,-1.6899848850309849,0.4772486789256334,-0.43416883113384247
1691674018453212400,11.45121240234375,-1.8754139331400392,0.6676537618815899,-0.6395593017756939
1691674018463257600,11.461257568359375,-2.093984203350544,0.8339759584605694,-0.856640210211277
1691674018473302500,11.471302490234375,-2.210656526097655,0.895859290921688,-1.1198293743491172
1691674018483348700,11.4813486328125,-2.218314347374439,0.8689183847650885,-1.348266958579421
1691674018493393400,11.491393310546876,-2.1141116301000116,0.8984028379246592,-1.433423030078411
1691674018503438600,11.5014384765625,-1.9801444736808538,0.985176281492412,-1.5519360122561454
1691674018513484500,11.511484619140624,-1.6769091303586958,1.0211191170111298,-1.639998326590657
1691674018523529500,11.521529541015624,-1.3930197080194948,1.082764841324091,-1.650843545731902
1691674018533574700,11.53157470703125,-1.182831481707096,1.2292889892384409,-1.6169903759688138
1691674018543619300,11.541619384765625,-1.0745382802486418,1.2675497463107108,-1.555360726007819
1691674018553665300,11.551665283203125,-0.9950544091671705,1.2987126540765166,-1.3871926093012095
1691674018563710500,11.56171044921875,-0.9421253675341605,1.36955787615031,-1.187540974572301
1691674018573755400,11.57175537109375,-1.0776853461027145,1.4381816227823494,-1.0233423460185527
1691674018583801600,11.581801513671875,-1.3016074987351893,1.3721198355928064,-0.9263304170310497
1691674018593846500,11.591846435546875,-1.420909000942111,1.2592056963354348,-0.7644926723897457
1691674018603891700,11.6018916015625,-1.6615771211922168,1.1738383201733231,-0.7327455349951982
1691674018613937400,11.6119375,-1.960936499863863,1.0157967529445886,-0.8153092519134283
1691674018623982300,11.621982421875,-2.1900819401025773,0.7924407097622752,-0.88904844186306
1691674018634027500,11.632027587890626,-2.3424971918821336,0.6166188634321094,-0.9939648603647947
1691674018644073500,11.642073486328124,-2.4746014770388602,0.5717229061290622,-1.0947685828506946
1691674018654118700,11.65211865234375,-2.5407003813683984,0.6317880832523107,-1.1068822144925594
1691674018664163600,11.66216357421875,-2.38062438570261,0.8311682075634598,-0.985454221650958
1691674018674208500,11.67220849609375,-2.230800903981924,1.116093987213075,-0.8288958787173032
1691674018684254500,11.68225439453125,-2.1462708554267884,1.5074851683720945,-0.5825549735277891
1691674018694299400,11.69229931640625,-2.092221285331249,2.0012144419774414,-0.2986410012692213
1691674018704344600,11.702344482421875,-2.0671943961024284,2.195641327795386,-0.14565700969099998
1691674018714390500,11.712390625,-1.867913348251581,2.059127117241919,-0.05969488250613212
1691674018724435500,11.722435546875,-1.5698901866197585,1.6590689377635717,-0.10476268924474716
1691674018734480400,11.73248046875,-1.2657307141900063,1.0737944761440157,-0.2024246065735817
1691674018744525300,11.742525390625,-0.9793535666882991,0.48680561182200904,-0.24629765056967734
1691674018754571500,11.752571533203126,-0.6817150204598903,0.03345715618282556,-0.1737631602346897
1691674018764616400,11.762616455078126,-0.4331739748775959,-0.20993483607321978,-0.031243279525637626
1691674018774661600,11.77266162109375,-0.3820002524793148,-0.4398290488526225,0.11343699408769607
1691674018784707600,11.78270751953125,-0.511427427381277,-0.6423667604118585,0.0848836842983961
1691674018794752500,11.79275244140625,-0.6705202572286129,-0.6988388814792037,-0.047911505731940265
1691674018804797400,11.80279736328125,-0.7021557509422302,-0.5737351227343082,0.0030897827088832855
1691674018814843400,11.812843505859375,-0.6545534572899341,-0.23707535645514724,0.3317407223165035
1691674018824888600,11.822888671875,-0.6970183880537748,0.12628507748395204,0.49608957299590106
1691674018834933500,11.83293359375,-0.633850276479125,0.31033114680200813,0.43258126968145366
1691674018844979500,11.8429794921875,-0.48797874725461005,0.38604806656539437,0.23983868368864059
1691674018855024600,11.853024658203125,-0.3286123611629009,0.3571376139014959,0.012258593070507048
1691674018865069300,11.8630693359375,-0.05490879900706932,0.30248861660808324,-0.09989479094743728
1691674018875114500,11.873114501953125,0.2783680651018396,0.25560879201143977,-0.2282043599963188
1691674018885160400,11.883160400390626,0.5341355182737112,0.2228799501031637,-0.32473172033727166
1691674018895205400,11.893205322265626,0.704791360142827,0.19673487049937247,-0.28739304654598236
1691674018905250600,11.90325048828125,0.870413299497962,0.24037176765203475,-0.14360183072686195
1691674018915296500,11.913296630859374,0.9654027827471494,0.2632294961482286,-0.007369651985168457
1691674018925341700,11.923341796875,0.9155635238230228,0.23935323825925586,0.16111118393242357
1691674018935386400,11.933386474609375,0.7470587225079536,0.2635492296218872,0.2584726570099592
1691674018945432300,11.943432373046875,0.5159761767268181,0.1731286617234349,0.24347791697382926
1691674018955477500,11.9534775390625,0.3622656244397163,-0.052555239884555335,0.19959435158371924
1691674018965522400,11.9635224609375,0.22198040744755415,-0.2327557396903634,0.18297347165048122
1691674018975567600,11.973567626953125,0.022972294786572454,-0.3027618805915117,0.27590719141364095
1691674018985613600,11.983613525390625,-0.2316080309599638,-0.37394349501281976,0.30714404119849203
1691674018995658500,11.993658447265625,-0.42514607817940414,-0.46675884909331794,0.3057955491989851
1691674019005703400,12.003703369140625,-0.5331459227144718,-0.46707536769658325,0.308171630680561
1691674019015749400,12.013749267578126,-0.6289373699963092,-0.4784530862793326,0.22702888647615907
1691674019025794600,12.023794677734376,-0.5896235967397689,-0.5163762819603085,0.18832301598489284
1691674019035839500,12.033839599609376,-0.5097948942760006,-0.42140287306308744,0.24865093569755553
1691674019045885400,12.043885498046874,-0.40778881026301533,-0.27969167838841674,0.2393190437287092
1691674019055930400,12.053930419921874,-0.17619126416444778,-0.24699030900895594,0.17313304563760756
1691674019065975600,12.0639755859375,0.2007201772758737,-0.2560091895058751,0.13691723839640615
1691674019076020500,12.0740205078125,0.5932482535103336,-0.21819237680882214,0.14779168363213538
1691674019086066400,12.08406640625,0.8871078291893005,-0.17431436437666414,0.20598960557878015
1691674019096111600,12.094111572265625,1.0952841311573982,-0.12034896543323993,0.29720424646437166
1691674019106156500,12.104156494140625,1.2365887908577917,-0.13593290353417395,0.3956102601587772
1691674019116202500,12.114202392578125,1.3103075225412846,-0.20978870560079813,0.45733810979723927
1691674019126247400,12.124247314453125,1.21410048019588,-0.16792729368805884,0.5507821171700954
1691674019136292400,12.134292236328125,0.9269453340589999,-0.1051464278653264,0.5823544825196266
1691674019146338600,12.144338623046876,0.6975865433305501,-0.1656654862359166,0.5734066214323044
1691674019156383500,12.154383544921876,0.5112473215740174,-0.29327801293134687,0.5043769243478775
1691674019166428700,12.1644287109375,0.31098084288239475,-0.36810470585674043,0.4545218833327293
1691674019176474600,12.174474609375,0.09287702113986014,-0.3447226612254977,0.47744215567111964
1691674019186519300,12.184519287109374,-0.1026601640075445,-0.2942921584099531,0.423268666934967
1691674019196564500,12.194564453125,-0.1985077253907919,-0.26140900272279977,0.34153672466576096
1691674019206609400,12.204609375,-0.19282730513419954,-0.1731570110350847,0.3526286120444536
1691674019216655600,12.214655517578125,-0.1303163057614118,-0.10293810416609048,0.2625678173691034
1691674019226700500,12.224700439453125,0.03236958014182746,-0.10076952795535325,0.17141338223814964
1691674019236745500,12.234745361328125,0.20739413861446082,-0.07961071233153343,0.15081658441126344
1691674019246791700,12.244791748046875,0.39632688399553295,-0.0337538010418415,0.16652502567470073
1691674019256836400,12.25483642578125,0.5433533554088325,-0.03220072638094425,0.12542846065461635
1691674019266881500,12.264881591796875,0.5743225672334432,-0.0613993483364582,0.074296239310503
1691674019276927500,12.274927490234376,0.521981554621458,-0.05494739571809768,0.034224925684928895
1691674019286972400,12.284972412109376,0.4214695450911298,-0.11082914967685938,-0.017221183913946152
1691674019297017600,12.295017578125,0.33036059306971727,-0.18107962072789668,0.008213117071986197
1691674019307062300,12.305062255859376,0.1969382110517472,-0.18932780911326408,0.030594460228085516
1691674019317108500,12.3151083984375,0.07754260082058607,-0.2313867894247174,-0.0055599722146987916
1691674019327153400,12.3251533203125,0.032240985326096414,-0.2843815897703171,0.02025192991197109
1691674019337198600,12.335198486328125,-0.011824877828359602,-0.26757716996371744,0.07242576926350593
1691674019347244500,12.34524462890625,-0.11316343784332275,-0.060252516388893125,0.2721615751445293
1691674019357289500,12.35528955078125,-0.3345031362345442,0.07201543489694595,0.27458266481161114
1691674019367334700,12.365334716796875,-0.44449963447954505,-0.03730973995774984,0.14505845927596092
1691674019377380600,12.375380615234375,-0.42915019925422965,-0.17373334961831569,0.029186346995830535
1691674019387425500,12.385425537109375,-0.39063594234492627,-0.2411126491472125,-0.026821371430158614
1691674019397470500,12.395470458984375,-0.35277470598425714,-0.14761252767294644,0.059981298232078546
1691674019407516400,12.405516357421876,-0.32367147069461644,-0.08735504284799099,0.04062894750833511
1691674019417561300,12.415561279296876,-0.25475853185765446,-0.1396563079714775,-0.07187631868720054
1691674019427606300,12.425606201171876,-0.1248374724915251,-0.16329641901701689,-0.1377963593184948
1691674019437651500,12.4356513671875,0.026344986090064047,-0.15156243434250355,-0.10943769531846045
1691674019447697400,12.445697509765624,0.19125965395867822,-0.13737754938453436,-0.01866203037202358
1691674019457742300,12.455742431640624,0.2424351299226284,-0.19752076018005607,-0.09147475312650204
1691674019467787300,12.465787353515625,0.1956576331892982,-0.28439211116433144,-0.20020868408977985
1691674019477833200,12.475833251953125,0.15858082520458847,-0.2888172341302037,-0.19393267256021499
1691674019487878400,12.48587841796875,0.044727614998817444,-0.25304741709083317,-0.09358721523582934
1691674019497923300,12.49592333984375,-0.16443535991907118,-0.08343056288063526,0.14846505284905434
1691674019507969300,12.50596923828125,-0.4127783256459981,0.10539835679978132,0.24164719441533086
1691674019518014500,12.516014404296875,-0.4914408704072237,0.08688742533624172,0.1760427956044674
1691674019528059100,12.52605908203125,-0.48952773026227947,0.014846271476149558,0.14972411299943922
1691674019538105300,12.536105224609376,-0.43272155493497844,-0.05458937606066465,0.12373802334964275
1691674019548150300,12.546150390625,-0.31996143719553943,-0.14357026654481886,0.10863806937336921
1691674019558195500,12.556195556640626,-0.23206220446825027,-0.17863894957751034,0.13159925824403762
1691674019568240400,12.566240478515626,-0.19526837814338505,-0.15298457610011099,0.13340192375183105
1691674019578286300,12.576286376953124,-0.15344759050197898,-0.19507044441848992,0.10589081649184226
1691674019588331300,12.586331298828124,-0.04456920956671238,-0.27948914155364035,0.09107669371962547
1691674019598376200,12.596376220703124,0.05044891525506973,-0.29492636466026306,0.14469956283569335
1691674019608422400,12.60642236328125,0.13073526182584463,-0.19894757811278105,0.33768355636894704
1691674019618467300,12.61646728515625,0.04643434585146606,-0.10134206714630126,0.31079496492147446
1691674019628512300,12.62651220703125,-0.10187113252170384,-0.1227419980496168,0.1420920106858015
1691674019638558500,12.636558349609375,-0.09809680161476135,-0.19059622161388395,0.08621230255365371
1691674019648603400,12.646603271484375,-0.07861066844351589,-0.18897592693567275,0.12007014849185943
1691674019658648300,12.6566484375,-0.07107033606655895,-0.18491466884613036,0.11117606341838836
1691674019668693200,12.666693359375,-0.12327106342501938,-0.23867051669210193,-0.03350771732628345
1691674019678739200,12.6767392578125,-0.10878186175823211,-0.2865443207621574,-0.10186053806245327
1691674019688784400,12.686784423828126,-0.03554192656762898,-0.2746343949988484,-0.07598901470303535
1691674019698829300,12.696829345703126,0.06451897819433361,-0.22689766131192443,-0.0068026657521724695
1691674019708875500,12.70687548828125,0.16628602928705513,-0.18269874636232852,0.022789339435100555
1691674019718920200,12.716920166015624,0.20446159229390323,-0.1285018767505884,0.043323008897900576
