time,seconds_elapsed,z,y,x
1691674088430198800,0.03019873046875,0.17391301691532135,0.5488474369049072,0.27176862955093384
1691674088440244000,0.040243896484375,0.20973919332027435,0.6413139700889587,0.19558463990688324
1691674088450290000,0.0502900390625,0.2344902753829956,0.6946113705635071,0.13547271490097046
1691674088460335000,0.060335205078125,0.2545774281024933,0.6740065217018127,0.11732114106416702
1691674088470380000,0.070380126953125,0.288263738155365,0.5974502563476562,0.1333390474319458
1691674088480426000,0.080426025390625,0.31063586473464966,0.4962383806705475,0.2079504430294037
1691674088490471000,0.090470947265625,0.3380470275878906,0.4743863344192505,0.3355163037776947
1691674088500516900,0.100516845703125,0.36200323700904846,0.5050712823867798,0.5161625146865845
1691674088510562000,0.11056201171875,0.35220223665237427,0.44906342029571533,0.7904640436172485
1691674088520607000,0.12060693359375,0.2445838898420334,0.5056007504463196,1.0785114765167236
1691674088530652000,0.13065185546875,0.017200656235218048,0.755172610282898,1.328344464302063
1691674088540697900,0.14069775390625,-0.2464517503976822,1.068894386291504,1.576676607131958
1691674088550742800,0.15074267578125,-0.5070803761482239,1.5855531692504883,1.7893387079238892
1691674088560788000,0.1607880859375,-0.7476293444633484,2.306692361831665,1.9538494348526
1691674088570834000,0.170833984375,-0.9597797393798828,2.9922027587890625,1.9451301097869873
1691674088580878800,0.18087890625,-1.231476902961731,2.27215576171875,1.159144401550293
1691674088590925000,0.190925048828125,-1.3353703022003174,0.6766231060028076,0.08251208066940308
1691674088600969700,0.2009697265625,-1.1924208402633667,0.5513349771499634,-0.38396668434143066
1691674088611015000,0.211014892578125,-1.0934109687805176,1.2111995220184326,-0.560661792755127
1691674088621060900,0.221060791015625,-0.7357551455497742,1.695326805114746,-0.7186686992645264
1691674088631105800,0.231105712890625,-0.08663073927164078,1.758963942527771,-0.9786769151687622
1691674088641151000,0.24115087890625,0.4647519886493683,2.0308539867401123,-1.101462960243225
1691674088651196000,0.25119580078125,0.6535799503326416,2.321988105773926,-1.1468064785003662
1691674088661242000,0.2612421875,0.4701153039932251,2.49660325050354,-1.1814955472946167
1691674088671286800,0.271286865234375,0.04756497964262962,2.5348267555236816,-1.200233817100525
1691674088681332700,0.281332763671875,-0.41710761189460754,2.4308085441589355,-1.2234143018722534
1691674088691378000,0.2913779296875,-0.8495246767997742,2.241722345352173,-1.2458575963974
1691674088701422800,0.3014228515625,-1.3090612888336182,1.973787784576416,-1.3080812692642212
1691674088711469000,0.311468994140625,-1.7767653465270996,1.7601468563079834,-1.3852664232254028
1691674088721514000,0.321513916015625,-2.1596901416778564,1.626734733581543,-1.4343018531799316
1691674088731559000,0.331558837890625,-2.3710200786590576,1.540004849433899,-1.377528429031372
1691674088741604900,0.34160498046875,-2.4065685272216797,1.3894673585891724,-1.2442454099655151
1691674088751649800,0.35164990234375,-2.238171339035034,1.2008259296417236,-1.0392262935638428
1691674088761695000,0.361695068359375,-1.8590543270111084,1.0616505146026611,-0.7648557424545288
1691674088771741000,0.371740966796875,-1.3720388412475586,0.9541189074516296,-0.4312179982662201
1691674088781785900,0.381785888671875,-0.9276504516601562,0.8343621492385864,-0.06738704442977905
1691674088791831000,0.3918310546875,-0.5943578481674194,0.8301486968994141,0.31660398840904236
1691674088801876700,0.401876708984375,-0.3765195310115814,0.9925258755683899,0.6487352848052979
1691674088811922000,0.411921875,-0.34189802408218384,1.0886423587799072,0.841393232345581
1691674088821966800,0.421966796875,-0.5965052247047424,0.957145094871521,0.906169056892395
1691674088832012800,0.4320126953125,-0.9767914414405823,0.6875014305114746,0.8927175998687744
1691674088842058000,0.44205810546875,-1.1131408214569092,0.22449065744876862,0.8300499320030212
1691674088852103000,0.45210302734375,-0.9885774254798889,-0.44070079922676086,0.7130156755447388
1691674088862149000,0.462149169921875,-0.7667582035064697,-1.0776269435882568,0.5838220119476318
1691674088872193800,0.47219384765625,-0.5652397274971008,-1.5859887599945068,0.4727734327316284
1691674088882239000,0.482239013671875,-0.41764914989471436,-1.9282188415527344,0.4594842493534088
1691674088892285000,0.492284912109375,-0.32526811957359314,-1.9418946504592896,0.5721587538719177
1691674088902329900,0.502329833984375,-0.2845284342765808,-1.8500946760177612,0.7401349544525146
1691674088912375000,0.512375,-0.32239240407943726,-1.7731043100357056,0.9268577098846436
1691674088922421000,0.5224208984375,-0.417562335729599,-1.6211893558502197,1.128103256225586
1691674088932465700,0.532465576171875,-0.4795469045639038,-1.375730037689209,1.2077159881591797
1691674088942510800,0.5425107421875,-0.3553770184516907,-1.0697267055511475,1.0097880363464355
1691674088952556800,0.552556884765625,-0.1270957589149475,-0.8914276957511902,0.6259506940841675
1691674088962602000,0.56260205078125,-0.12060829252004623,-0.9011064171791077,0.2652370035648346
1691674088972647000,0.57264697265625,-0.26208552718162537,-1.0033502578735352,0.09980355948209763
1691674088982692900,0.58269287109375,-0.329507440328598,-1.1001107692718506,0.1407454013824463
1691674088992738000,0.592738037109375,-0.28813111782073975,-1.1627216339111328,0.2949025630950928
1691674089002782700,0.60278271484375,-0.19408558309078217,-1.110363245010376,0.47749289870262146
1691674089012829000,0.612828857421875,-0.1315469741821289,-0.964288055896759,0.6323016881942749
1691674089022873900,0.622873779296875,-0.15643422305583954,-0.8811728954315186,0.6742265224456787
1691674089032919000,0.6329189453125,-0.22044096887111664,-0.8569007515907288,0.642193615436554
1691674089042965000,0.642965087890625,-0.28480425477027893,-0.2335040271282196,0.5453442931175232
1691674089053010000,0.653010009765625,-0.4120239019393921,-0.8199710249900818,0.3147353529930115
1691674089063054800,0.663054931640625,-0.6329064965248108,-1.276620626449585,-0.05714073032140732
1691674089073100800,0.673100830078125,-0.8291155695915222,-1.4186276197433472,-0.6286704540252686
1691674089083146000,0.68314599609375,-0.8625451326370239,-1.5089809894561768,-0.885157585144043
1691674089093191000,0.69319091796875,-0.8277955055236816,-1.3420255184173584,-0.9499605298042297
1691674089103236900,0.70323681640625,-0.610847532749176,-1.4176677465438843,-0.8816680312156677
1691674089113282000,0.713281982421875,-0.21743272244930267,-1.793776273727417,-0.6596895456314087
1691674089123327000,0.723326904296875,0.18151839077472687,-2.3105714321136475,-0.35799816250801086
1691674089133372700,0.73337255859375,0.5307289361953735,-2.941509246826172,-0.03329074755311012
1691674089143417900,0.74341796875,0.7431383728981018,-3.5638926029205322,0.20443391799926758
1691674089153462800,0.753462890625,0.7596566081047058,-4.268565654754639,0.330415815114975
1691674089163509000,0.763509033203125,0.6222923398017883,-4.775725364685059,0.46121299266815186
1691674089173554000,0.773553955078125,0.5460562705993652,-5.191249847412109,0.5226054191589355
1691674089183599000,0.78359912109375,0.737430214881897,-5.557045936584473,0.43559786677360535
1691674089193645000,0.79364501953125,0.8216214179992676,-5.863090515136719,0.2169618457555771
1691674089203689700,0.803689697265625,0.4043727517127991,-6.2538580894470215,-0.11166077107191086
1691674089213735000,0.81373486328125,0.02067067287862301,-6.605799674987793,-0.5142885446548462
1691674089223780900,0.82378076171875,0.06663097441196442,-6.7766923904418945,-0.8856785893440247
1691674089233826000,0.833825927734375,0.5049089789390564,-6.847123146057129,-1.0858500003814697
1691674089243871000,0.84387109375,1.1577372550964355,-6.808113098144531,-1.1458065509796143
1691674089253917000,0.8539169921875,1.7061091661453247,-6.572346210479736,-1.2388336658477783
1691674089263961900,0.8639619140625,1.9170283079147339,-6.322378158569336,-1.42446768283844
1691674089274006800,0.8740068359375,1.901859164237976,-6.402602195739746,-1.76167631149292
1691674089284052700,0.884052734375,1.9253333806991577,-6.996346473693848,-2.2123196125030518
1691674089294098000,0.894097900390625,2.1352970600128174,-7.663849353790283,-2.3300938606262207
1691674089304144000,0.904143798828125,2.440154552459717,-8.406390190124512,-2.377257823944092
1691674089314189000,0.91418896484375,2.9380593299865723,-9.068530082702637,-2.2009308338165283
1691674089324234000,0.92423388671875,3.395927906036377,-9.619393348693848,-1.8929767608642578
1691674089334279000,0.93427880859375,3.9083099365234375,-9.71634578704834,-1.4871374368667603
1691674089344324900,0.944324951171875,4.463308811187744,-9.32700252532959,-1.0598998069763184
1691674089354369800,0.954369873046875,4.795497417449951,-8.543916702270508,-0.9777399897575378
1691674089364416000,0.964416015625,4.979607105255127,-7.329916477203369,-1.0730245113372803
1691674089374461000,0.9744609375,5.144367218017578,-6.185622215270996,-1.149556279182434
1691674089384506000,0.984506103515625,5.413166522979736,-5.7868733406066895,-1.2105674743652344
1691674089394552000,0.994552001953125,5.833778381347656,-6.014381408691406,-1.1300679445266724
1691674089404596700,1.0045966796875,6.193836688995361,-6.2409987449646,-0.9214990139007568
1691674089414642000,1.014641845703125,6.3951616287231445,-6.191676139831543,-0.6880409121513367
1691674089424687900,1.02468798828125,6.615210056304932,-5.929957866668701,-0.3915053904056549
1691674089434732800,1.03473291015625,6.9875712394714355,-5.544650554656982,-0.014000717550516129
1691674089444778000,1.044778076171875,7.443324565887451,-5.171291351318359,0.43302470445632935
1691674089454824000,1.054823974609375,7.892826557159424,-4.856846809387207,0.9021450281143188
1691674089464868900,1.064868896484375,8.151518821716309,-4.440724849700928,1.246809959411621
1691674089474913800,1.074913818359375,8.17958927154541,-3.727548122406006,1.39922034740448
1691674089484959700,1.084959716796875,7.893896102905273,-2.825500249862671,1.2173078060150146
1691674089495005000,1.0950048828125,7.267574310302734,-1.989557147026062,0.655724823474884
1691674089505049600,1.105049560546875,6.557363510131836,-1.2986806631088257,-0.22062775492668152
1691674089515095800,1.115095703125,5.863101005554199,-0.781743049621582,-1.2599833011627197
1691674089525140700,1.125140625,5.187146186828613,-0.3431454598903656,-2.1952598094940186
1691674089535186000,1.13518603515625,4.5303053855896,0.0554574579000473,-2.7980709075927734
1691674089545232000,1.14523193359375,3.825453281402588,0.2759262025356293,-2.9386608600616455
1691674089555276800,1.15527685546875,3.044163227081299,0.23595140874385834,-2.6114304065704346
1691674089565321700,1.16532177734375,2.16552734375,0.08277757465839386,-1.933749794960022
1691674089575367700,1.17536767578125,1.2598865032196045,-0.08274254202842712,-1.0188624858856201
1691674089585412900,1.185412841796875,0.45515191555023193,-0.2081308215856552,0.00906442478299141
1691674089595457800,1.195457763671875,-0.20425927639007568,-0.25981107354164124,1.0086990594863892
1691674089605503700,1.205503662109375,-0.6851633191108704,-0.3340730667114258,1.90255606174469
1691674089615549000,1.215548828125,-1.0137324333190918,-0.37475675344467163,2.582153081893921
1691674089625593600,1.225593505859375,-1.2328280210494995,-0.346191942691803,3.0169434547424316
1691674089635639600,1.2356396484375,-1.4090510606765747,-0.3028010427951813,3.2626123428344727
1691674089645684700,1.245684814453125,-1.5810168981552124,-0.32775911688804626,3.3717267513275146
1691674089655729700,1.255729736328125,-1.7739921808242798,-0.49366623163223267,3.394343137741089
1691674089665775900,1.26577587890625,-1.9825246334075928,-0.7378429174423218,3.359813690185547
1691674089675820800,1.27582080078125,-2.172271728515625,-1.152957558631897,3.249884843826294
1691674089685866800,1.28586669921875,-2.3452248573303223,-1.689277172088623,3.0928761959075928
1691674089695912000,1.295911865234375,-2.4603564739227295,-2.254650115966797,2.8997275829315186
1691674089705956600,1.30595654296875,-2.4805023670196533,-2.8158349990844727,2.6295671463012695
1691674089716002800,1.3160029296875,-2.425062656402588,-3.321767568588257,2.2746407985687256
1691674089726047700,1.3260478515625,-2.351102352142334,-3.7891364097595215,1.9228990077972412
1691674089736093000,1.336093017578125,-2.2929210662841797,-4.235869407653809,1.6542503833770752
1691674089746139000,1.346138916015625,-2.2634778022766113,-4.721330642700195,1.510584831237793
1691674089756183800,1.356183837890625,-2.295456886291504,-5.2095723152160645,1.5252025127410889
1691674089766228700,1.366228759765625,-2.383085250854492,-5.714385986328125,1.6879743337631226
1691674089776274700,1.376274658203125,-2.519167184829712,-6.208922863006592,1.9568700790405273
1691674089786319600,1.386319580078125,-2.673628330230713,-6.672356605529785,2.3199615478515625
1691674089796364800,1.39636474609375,-2.7906174659729004,-7.020296096801758,2.7188315391540527
1691674089806410800,1.40641064453125,-2.8815314769744873,-7.252501487731934,3.0601210594177246
1691674089816456000,1.4164560546875,-2.9776861667633057,-7.347727298736572,3.237741470336914
1691674089826500900,1.4265009765625,-3.0702474117279053,-7.326845169067383,3.2169694900512695
1691674089836546600,1.436546630859375,-3.144603729248047,-7.113180160522461,3.0196683406829834
1691674089846591700,1.446591796875,-3.2093021869659424,-6.709715366363525,2.684177875518799
1691674089856636700,1.45663671875,-3.2587738037109375,-6.173868179321289,2.247741222381592
1691674089866683000,1.466682861328125,-3.3037400245666504,-5.571465015411377,1.7495938539505005
1691674089876727800,1.476727783203125,-3.369175434112549,-4.9372663497924805,1.231986165046692
1691674089886773000,1.48677294921875,-3.4310500621795654,-4.319085121154785,0.7255703210830688
1691674089896819000,1.49681884765625,-3.504920482635498,-3.7319228649139404,0.27142906188964844
1691674089906863600,1.506863525390625,-3.585413932800293,-3.1958842277526855,-0.14228421449661255
1691674089916908800,1.51690869140625,-3.6600358486175537,-2.7078778743743896,-0.5308820009231567
1691674089926954800,1.526954833984375,-3.7113757133483887,-2.2757906913757324,-0.9010629653930664
1691674089936999700,1.536999755859375,-3.743882417678833,-1.9015212059020996,-1.2361613512039185
1691674089947044900,1.547044921875,-3.7506601810455322,-1.5862847566604614,-1.5335227251052856
1691674089957090800,1.5570908203125,-3.70245099067688,-1.3279469013214111,-1.78037691116333
1691674089967135700,1.5671357421875,-3.6201095581054688,-1.1343510150909424,-1.970167636871338
1691674089977180700,1.5771806640625,-3.53739595413208,-1.005878210067749,-2.1126904487609863
1691674089987226600,1.5872265625,-3.4567506313323975,-0.9209343194961548,-2.2067675590515137
1691674089997271800,1.597271728515625,-3.3549811840057373,-0.8528401851654053,-2.256784439086914
1691674090007316700,1.607316650390625,-3.2191386222839355,-0.8161543607711792,-2.2515347003936768
1691674090017363000,1.617363037109375,-3.074897527694702,-0.8172940611839294,-2.2180593013763428
1691674090027408000,1.627407958984375,-2.932722568511963,-0.839590847492218,-2.1663575172424316
1691674090037452800,1.637452880859375,-2.8058226108551025,-0.8458330035209656,-2.1100106239318848
1691674090047498800,1.647498779296875,-2.697916269302368,-0.8350133895874023,-2.0416760444641113
1691674090057543700,1.657543701171875,-2.5770695209503174,-0.8360421061515808,-1.9587026834487915
1691674090067589600,1.667589599609375,-2.4401068687438965,-0.8199294805526733,-1.865645408630371
1691674090077634800,1.677634765625,-2.2508392333984375,-0.737185537815094,-1.781328558921814
1691674090087679700,1.6876796875,-2.0172741413116455,-0.6111202836036682,-1.7143503427505493
1691674090097726000,1.697725830078125,-1.7406574487686157,-0.48110446333885193,-1.6367260217666626
1691674090107770600,1.7077705078125,-1.4408185482025146,-0.3495997190475464,-1.5243685245513916
1691674090117815800,1.71781591796875,-1.1409580707550049,-0.1867857724428177,-1.3824951648712158
1691674090127861800,1.72786181640625,-0.8322436809539795,-0.029339957982301712,-1.2508535385131836
1691674090137906700,1.73790673828125,-0.5370006561279297,0.11917181313037872,-1.138429880142212
1691674090147951900,1.747951904296875,-0.27276232838630676,0.2742069661617279,-1.0407323837280273
1691674090157997800,1.757997802734375,-0.035822972655296326,0.4270973801612854,-0.9485960602760315
1691674090168042800,1.768042724609375,0.17982223629951477,0.5899389982223511,-0.8391395807266235
1691674090178087700,1.778087646484375,0.3819330632686615,0.7670724391937256,-0.7372757196426392
1691674090188133600,1.788133544921875,0.5691453218460083,0.9521373510360718,-0.6536884307861328
1691674090198178800,1.7981787109375,0.7697724103927612,1.1289243698120117,-0.5969194769859314
1691674090208223700,1.8082236328125,0.9813941121101379,1.3314489126205444,-0.5794171690940857
1691674090218270000,1.81827001953125,1.207078218460083,1.5514798164367676,-0.5899007320404053
1691674090228315000,1.82831494140625,1.4620896577835083,1.7422311305999756,-0.6198844313621521
1691674090238359800,1.83835986328125,1.7633113861083984,1.8860158920288086,-0.6699244976043701
1691674090248405800,1.84840576171875,2.1072194576263428,2.0288076400756836,-0.7452855706214905
1691674090258450700,1.85845068359375,2.471770763397217,2.1377735137939453,-0.8444390892982483
1691674090268496000,1.868495849609375,2.8368122577667236,2.1646573543548584,-0.9689144492149353
1691674090278541800,1.878541748046875,3.1933279037475586,2.1613476276397705,-1.0720205307006836
1691674090288586800,1.888586669921875,3.5526723861694336,2.16965389251709,-1.1669321060180664
1691674090298631700,1.898631591796875,3.895989418029785,2.1505017280578613,-1.2656365633010864
1691674090308677600,1.908677734375,4.208046913146973,2.0658762454986572,-1.3146315813064575
1691674090318722800,1.918722900390625,4.464445114135742,2.0203800201416016,-1.335591197013855
1691674090328767700,1.928767822265625,4.651787757873535,2.0393404960632324,-1.365559697151184
1691674090338813700,1.938813720703125,4.756564617156982,2.127333641052246,-1.401336908340454
1691674090348859000,1.94885888671875,4.8341779708862305,2.2761943340301514,-1.424065113067627
1691674090358903800,1.95890380859375,4.912575721740723,2.4255757331848145,-1.4635754823684692
1691674090368950000,1.968949951171875,4.978864669799805,2.5354793071746826,-1.5216412544250488
1691674090378994700,1.97899462890625,5.016565322875977,2.6326351165771484,-1.6072180271148682
1691674090389039900,1.989039794921875,5.052715301513672,2.7500152587890625,-1.7286059856414795
1691674090399085800,1.9990859375,5.1485066413879395,2.9329721927642822,-1.8948941230773926
1691674090409130800,2.009130859375,5.313488960266113,3.16058611869812,-2.091827392578125
1691674090419176000,2.019176025390625,5.51960563659668,3.3593668937683105,-2.2963693141937256
1691674090429222000,2.029221923828125,5.7266693115234375,3.5559170246124268,-2.4986214637756348
1691674090439266600,2.0392666015625,5.904915809631348,3.7424778938293457,-2.704613208770752
1691674090449312800,2.049312744140625,6.053750991821289,3.9113857746124268,-2.9249861240386963
1691674090459357700,2.059357666015625,6.1728010177612305,4.09127950668335,-3.158714771270752
1691674090469403000,2.06940283203125,6.250352382659912,4.303628444671631,-3.384105920791626
1691674090479448800,2.07944873046875,6.285092830657959,4.539124965667725,-3.5528225898742676
1691674090489497900,2.089497802734375,6.231954574584961,4.770644664764404,-3.64855694770813
1691674090499543000,2.09954296875,6.0541815757751465,4.949242115020752,-3.635641574859619
1691674090509589000,2.109589111328125,5.756270408630371,5.063659191131592,-3.491593599319458
1691674090519633700,2.119633544921875,5.35492467880249,5.085324764251709,-3.195768117904663
1691674090529678800,2.129678955078125,4.864886283874512,5.005368232727051,-2.749314785003662
1691674090539724800,2.139724853515625,4.318116188049316,4.82667875289917,-2.191495895385742
1691674090549770000,2.14977001953125,3.7383437156677246,4.539544582366943,-1.5698411464691162
1691674090559815000,2.15981494140625,3.1543948650360107,4.160558700561523,-0.9551271796226501
1691674090569860900,2.16986083984375,2.5898072719573975,3.7512247562408447,-0.43351566791534424
1691674090579905800,2.17990576171875,2.045628309249878,3.2967987060546875,-0.027872277423739433
1691674090589950700,2.18995068359375,1.5557851791381836,2.783390522003174,0.2798711657524109
1691674090599997000,2.199996826171875,1.133434534072876,2.2366952896118164,0.493333637714386
1691674090610041900,2.210041748046875,0.7922274470329285,1.6737831830978394,0.631112277507782
1691674090620086800,2.220086669921875,0.5562011003494263,1.1551939249038696,0.6782386898994446
1691674090630133000,2.230133056640625,0.4381316900253296,0.6917925477027893,0.6407837271690369
1691674090640178000,2.240177978515625,0.4015347957611084,0.29181984066963196,0.5590707659721375
1691674090650222800,2.250222900390625,0.42025551199913025,-0.03726750239729881,0.4458387494087219
1691674090660268800,2.260268798828125,0.49061891436576843,-0.2938583195209503,0.34014445543289185
1691674090670313700,2.270313720703125,0.6038916707038879,-0.4533585011959076,0.2549741864204407
1691674090680359000,2.28035888671875,0.739719808101654,-0.5158165693283081,0.19551338255405426
1691674090690404900,2.29040478515625,0.8681017756462097,-0.463413804769516,0.16737575829029083
1691674090700450000,2.300449951171875,1.0139230489730835,-0.3404415249824524,0.15247869491577148
1691674090710494700,2.31049462890625,1.1400692462921143,-0.20076699554920197,0.11333288997411728
1691674090720540700,2.320540771484375,1.2218515872955322,-0.0218854658305645,0.06607841700315475
1691674090730585900,2.3305859375,1.2462328672409058,0.17154498398303986,0.03209594637155533
1691674090740631800,2.3406318359375,1.2075207233428955,0.3890915811061859,0.00455462746322155
1691674090750677000,2.350677001953125,1.1273337602615356,0.5714273452758789,-0.03493845462799072
1691674090760722000,2.360721923828125,1.026181697845459,0.7149208784103394,-0.07910976558923721
1691674090770768000,2.370767822265625,0.9250263571739197,0.8149758577346802,-0.10546813160181046
1691674090780812800,2.380812744140625,0.8435229659080505,0.8654979467391968,-0.059778712689876556
1691674090790857700,2.390857666015625,0.7428981065750122,0.842322051525116,0.07826384156942368
1691674090800903700,2.400903564453125,0.6258189678192139,0.740067720413208,0.2628087103366852
1691674090810948900,2.410948974609375,0.5241908431053162,0.6164016723632812,0.4365312159061432
1691674090820993800,2.420993896484375,0.41983968019485474,0.5300122499465942,0.5440933108329773
1691674090831040000,2.4310400390625,0.24833451211452484,0.49723803997039795,0.5824851393699646
1691674090841085000,2.4410849609375,-0.018613357096910477,0.4706515073776245,0.5412724018096924
1691674090851129900,2.4511298828125,-0.3210403323173523,0.4040676951408386,0.46991193294525146
1691674090861175800,2.46117578125,-0.6264693737030029,0.3390989601612091,0.41042616963386536
1691674090871220700,2.471220703125,-0.9308114647865295,0.3027481436729431,0.41451650857925415
1691674090881266000,2.481265869140625,-1.2214030027389526,0.22015345096588135,0.4926490783691406
1691674090891311900,2.491311767578125,-1.503779649734497,0.11234042048454285,0.6052661538124084
1691674090901357000,2.501357177734375,-1.8004021644592285,-0.03115955740213394,0.7113410234451294
1691674090911401700,2.511401611328125,-2.11759090423584,-0.1844945102930069,0.7954005002975464
1691674090921447700,2.52144775390625,-2.44757080078125,-0.38219258189201355,0.8731209635734558
1691674090931492900,2.531492919921875,-2.7425296306610107,-0.6236874461174011,0.9753714799880981
1691674090941537800,2.541537841796875,-2.969911813735962,-0.8610821962356567,1.126628041267395
1691674090951583700,2.551583740234375,-3.1126229763031006,-1.0612092018127441,1.2999932765960693
1691674090961629000,2.56162890625,-3.1804237365722656,-1.2380437850952148,1.4789505004882812
1691674090971673900,2.571673828125,-3.189549446105957,-1.4203965663909912,1.6527044773101807
1691674090981720000,2.581719970703125,-3.19067120552063,-1.7266055345535278,1.8185826539993286
1691674090991764700,2.5917646484375,-3.2291152477264404,-2.033552408218384,1.9399574995040894
1691674091001810700,2.601810791015625,-3.3181021213531494,-2.2621805667877197,1.9673575162887573
1691674091011856000,2.61185595703125,-3.4594578742980957,-2.422208547592163,1.9079359769821167
1691674091021900800,2.62190087890625,-3.6311211585998535,-2.5601282119750977,1.7844781875610352
1691674091031947000,2.631947021484375,-3.796389579772949,-2.6711838245391846,1.617423415184021
1691674091041992000,2.641991943359375,-3.9324493408203125,-2.733133554458618,1.414273977279663
1691674091052036900,2.652036865234375,-4.065176010131836,-2.826409101486206,1.1857472658157349
1691674091062082800,2.662082763671875,-4.206493377685547,-2.950322389602661,0.9759354591369629
1691674091072127700,2.672127685546875,-4.354918003082275,-3.0815956592559814,0.7954272031784058
1691674091082173000,2.6821728515625,-4.523676872253418,-3.2063047885894775,0.6320034265518188
1691674091092219000,2.692218994140625,-4.691519737243652,-3.293504476547241,0.4776242673397064
1691674091102263800,2.702263916015625,-4.807956218719482,-3.340879201889038,0.3655235171318054
1691674091112308700,2.712308837890625,-4.8148088455200195,-3.338369607925415,0.29914742708206177
1691674091122354700,2.722354736328125,-4.7404937744140625,-3.3233847618103027,0.2582318186759949
1691674091132399900,2.73239990234375,-4.604849338531494,-3.276207208633423,0.27224671840667725
1691674091142444800,2.74244482421875,-4.369171619415283,-3.2179901599884033,0.32229119539260864
1691674091152490800,2.75249072265625,-4.06080436706543,-3.1400179862976074,0.384880006313324
1691674091162536000,2.762535888671875,-3.718365430831909,-3.0266058444976807,0.4178737998008728
1691674091172580900,2.772580810546875,-3.3786122798919678,-2.876926898956299,0.39731207489967346
1691674091182627000,2.782626953125,-3.0507235527038574,-2.665153980255127,0.32623735070228577
1691674091192671700,2.792671630859375,-2.7272636890411377,-2.3770318031311035,0.2095797061920166
1691674091202717000,2.802717041015625,-2.4307785034179688,-2.0799789428710938,0.07203241437673569
1691674091212763000,2.812762939453125,-2.1667656898498535,-1.7691293954849243,-0.08345863968133926
1691674091222807800,2.822807861328125,-1.9396196603775024,-1.4526644945144653,-0.2555195093154907
1691674091232853000,2.83285302734375,-1.7655072212219238,-1.1709345579147339,-0.42696771025657654
1691674091242899000,2.84289892578125,-1.6400599479675293,-0.9454402327537537,-0.5644119381904602
1691674091252944000,2.85294384765625,-1.5683913230895996,-0.7693200707435608,-0.6696512699127197
1691674091262989800,2.86298974609375,-1.5326991081237793,-0.6465446352958679,-0.7254562973976135
1691674091273034800,2.87303466796875,-1.532336950302124,-0.5447578430175781,-0.712575376033783
1691674091283080000,2.883079833984375,-1.5611114501953125,-0.42716872692108154,-0.6291307210922241
1691674091293126000,2.8931259765625,-1.589982509613037,-0.31509146094322205,-0.4953013062477112
1691674091303170800,2.9031708984375,-1.5767545700073242,-0.2648075222969055,-0.3451826274394989
1691674091313216000,2.913216064453125,-1.5009394884109497,-0.24667617678642273,-0.2269878089427948
1691674091323262000,2.923261962890625,-1.3905693292617798,-0.26334673166275024,-0.1586480736732483
1691674091333307000,2.933306884765625,-1.2789229154586792,-0.3023793399333954,-0.11447262018918991
1691674091343351800,2.943351806640625,-1.1681019067764282,-0.3060910403728485,-0.05843639001250267
1691674091353397800,2.953397705078125,-1.0719308853149414,-0.27641674876213074,-0.015085186809301376
1691674091363443000,2.96344287109375,-0.9859916567802429,-0.2455948144197464,-0.009199928492307663
1691674091373487900,2.97348779296875,-0.9139994978904724,-0.16843929886817932,-0.07420635968446732
1691674091383534000,2.9835341796875,-0.840366780757904,-0.11914981156587601,-0.18242385983467102
1691674091393578800,2.993578857421875,-0.7454645037651062,-0.09227798134088516,-0.2740187644958496
1691674091403624000,3.0036240234375,-0.6340312957763672,-0.04435106739401817,-0.33004799485206604
1691674091413670000,3.013669921875,-0.5197454690933228,0.02282077819108963,-0.3825485110282898
1691674091423714800,3.02371484375,-0.3770071864128113,0.11187150329351425,-0.44509416818618774
1691674091433760000,3.033760009765625,-0.18878401815891266,0.19480367004871368,-0.5039764046669006
1691674091443806000,3.043805908203125,0.018872713670134544,0.2789478898048401,-0.5530334711074829
1691674091453850600,3.0538505859375,0.23335091769695282,0.3597697913646698,-0.5847378969192505
1691674091463896800,3.063896728515625,0.43639326095581055,0.437840074300766,-0.6075308322906494
1691674091473941800,3.073941650390625,0.6456378102302551,0.518576443195343,-0.6294922828674316
1691674091483987000,3.083987060546875,0.8655014038085938,0.6113587617874146,-0.6574131846427917
1691674091494028500,3.094028564453125,1.1120562553405762,0.7086168527603149,-0.6794215440750122
1691674091504073700,3.10407373046875,1.391055703163147,0.8461847901344299,-0.6786013245582581
1691674091514118700,3.11411865234375,1.6803088188171387,0.9727291464805603,-0.6290870308876038
1691674091524164600,3.12416455078125,1.9563080072402954,1.057263970375061,-0.5430272221565247
1691674091534209500,3.13420947265625,2.2012693881988525,1.1256917715072632,-0.42984211444854736
1691674091544254500,3.14425439453125,2.4191737174987793,1.2027665376663208,-0.3101274371147156
1691674091554300700,3.15430078125,2.620419502258301,1.2909520864486694,-0.2125966101884842
1691674091564345600,3.164345703125,2.7950186729431152,1.382733702659607,-0.09923635423183441
1691674091574390500,3.174390625,2.977898359298706,1.5126514434814453,0.058886703103780746
1691674091584436700,3.184436767578125,3.255786895751953,1.6514689922332764,0.2183886021375656
1691674091594481700,3.194481689453125,3.6091742515563965,1.7248648405075073,0.2820948660373688
1691674091604526600,3.204526611328125,4.0521955490112305,1.7238050699234009,0.10977360606193542
1691674091614572500,3.214572509765625,4.524176597595215,1.7788478136062622,-0.3029676079750061
1691674091624617500,3.224617431640625,4.966946125030518,1.9439842700958252,-0.8259034752845764
1691674091634662700,3.23466259765625,5.340986251831055,2.1694443225860596,-1.293756365776062
1691674091644708600,3.24470849609375,5.64162015914917,2.342073440551758,-1.6858793497085571
1691674091654753800,3.25475390625,5.845412731170654,2.4598023891448975,-2.035688638687134
1691674091664799700,3.2647998046875,5.935108184814453,2.54046630859375,-2.364269256591797
1691674091674844400,3.274844482421875,5.910040378570557,2.5975818634033203,-2.685401678085327
1691674091684889600,3.2848896484375,5.796604156494141,2.6801021099090576,-3.0005154609680176
1691674091694935600,3.294935546875,5.628833293914795,2.765944242477417,-3.313591241836548
1691674091704980700,3.304980712890625,5.419076442718506,2.889122486114502,-3.6037163734436035
1691674091715025700,3.315025634765625,5.19690465927124,3.096541404724121,-3.8275444507598877
1691674091725071600,3.325071533203125,5.036692142486572,3.3548424243927,-3.9699175357818604
1691674091735116800,3.33511669921875,4.928646564483643,3.634453535079956,-4.005565166473389
1691674091745161500,3.345161376953125,4.821242809295654,3.8898751735687256,-3.9429609775543213
1691674091755207400,3.35520751953125,4.6699957847595215,4.1251654624938965,-3.8296492099761963
1691674091765252600,3.365252685546875,4.424100399017334,4.335595607757568,-3.7151424884796143
1691674091775297500,3.375297607421875,4.063480377197266,4.493497371673584,-3.6397862434387207
1691674091785343700,3.38534375,3.6281819343566895,4.554337978363037,-3.5978262424468994
1691674091795388700,3.395388671875,3.1849098205566406,4.531015872955322,-3.570502758026123
1691674091805433600,3.40543359375,2.788191556930542,4.42719030380249,-3.543184995651245
1691674091815479600,3.4154794921875,2.4302074909210205,4.246697425842285,-3.529419422149658
1691674091825524500,3.4255244140625,2.117217540740967,3.9846088886260986,-3.540466547012329
1691674091835569700,3.435569580078125,1.8690638542175293,3.653507947921753,-3.55403208732605
1691674091845615600,3.44561572265625,1.6971393823623657,3.27140212059021,-3.5563344955444336
1691674091855660800,3.455660888671875,1.566286325454712,2.8592145442962646,-3.532461643218994
1691674091865706800,3.465706787109375,1.452017903327942,2.4448797702789307,-3.487212657928467
1691674091875751400,3.47575146484375,1.343609094619751,2.0438153743743896,-3.4131393432617188
1691674091885796600,3.485796630859375,1.233425259590149,1.678370714187622,-3.3158671855926514
1691674091895842600,3.495842529296875,1.1295260190963745,1.3632076978683472,-3.2076830863952637
1691674091905887500,3.505887451171875,1.021943211555481,1.0944119691848755,-3.095656156539917
1691674091915932700,3.5159326171875,0.9281572103500366,0.906234085559845,-2.9796788692474365
1691674091925978600,3.525978515625,0.849112868309021,0.7717504501342773,-2.8643927574157715
1691674091936023800,3.53602392578125,0.7852464914321899,0.6940503716468811,-2.736787796020508
1691674091946068500,3.546068359375,0.7816091179847717,0.7320489287376404,-2.588477373123169
1691674091956114400,3.556114501953125,0.845087468624115,0.9535528421401978,-2.444838523864746
1691674091966159600,3.56615966796875,0.9708676934242249,1.179244875907898,-2.329843521118164
1691674091976204500,3.57620458984375,1.128033995628357,1.385624885559082,-2.274705410003662
1691674091986250800,3.586250732421875,1.3128777742385864,1.6059333086013794,-2.2806529998779297
1691674091996295700,3.596295654296875,1.528549075126648,1.8567460775375366,-2.3230390548706055
1691674092006340600,3.606340576171875,1.7156367301940918,2.135450601577759,-2.3891918659210205
1691674092016386600,3.616386474609375,1.845697045326233,2.396367311477661,-2.466824769973755
1691674092026431500,3.626431396484375,1.9134236574172974,2.6332650184631348,-2.5472683906555176
1691674092036477400,3.6364775390625,1.9328804016113281,2.8589065074920654,-2.6177661418914795
1691674092046522600,3.646522705078125,1.9050912857055664,3.027717351913452,-2.6610705852508545
1691674092056567600,3.656567626953125,1.8443189859390259,3.111415386199951,-2.6500296592712402
1691674092066613800,3.66661376953125,1.760069727897644,3.141261339187622,-2.5653536319732666
1691674092076658700,3.67665869140625,1.6651653051376343,3.138214349746704,-2.3887009620666504
1691674092086703600,3.68670361328125,1.5837488174438477,3.125143051147461,-2.1268117427825928
1691674092096749600,3.69674951171875,1.5304327011108398,3.0930802822113037,-1.7876876592636108
1691674092106794500,3.70679443359375,1.4949748516082764,3.004030466079712,-1.3824313879013062
1691674092116839700,3.716839599609375,1.4748387336730957,2.8186352252960205,-0.9172596335411072
1691674092126885600,3.7268857421875,1.4449756145477295,2.5455570220947266,-0.4333358407020569
1691674092136930800,3.736930908203125,1.3950724601745605,2.237978458404541,0.009475392289459705
1691674092146975500,3.7469755859375,1.3203341960906982,1.9233673810958862,0.40840885043144226
1691674092157021400,3.757021484375,1.247891902923584,1.6328297853469849,0.7645770907402039
1691674092167066600,3.767066650390625,1.1771212816238403,1.2750365734100342,1.1127276420593262
1691674092177111600,3.777111572265625,1.1374330520629883,0.9039918780326843,1.4634355306625366
1691674092187157500,3.787157470703125,1.1335945129394531,0.589775025844574,1.7945584058761597
1691674092197202700,3.79720263671875,1.1564412117004395,0.27714788913726807,2.061159610748291
1691674092207247600,3.80724755859375,1.1569175720214844,0.011754253879189491,2.2503764629364014
1691674092217293600,3.81729345703125,1.1008565425872803,-0.13540031015872955,2.3598508834838867
1691674092227338500,3.82733837890625,0.9658340811729431,-0.215366393327713,2.377218246459961
1691674092237384400,3.837384521484375,0.7843359708786011,-0.2205321341753006,2.3489394187927246
1691674092247429600,3.8474296875,0.5916674137115479,-0.16667211055755615,2.33785080909729
1691674092257474600,3.857474609375,0.38589805364608765,-0.13093328475952148,2.3872616291046143
1691674092267520800,3.867520751953125,0.16337549686431885,-0.15825651586055756,2.5473639965057373
1691674092277565700,3.877565673828125,-0.07317127287387848,-0.20367273688316345,2.731520414352417
1691674092287610600,3.887610595703125,-0.2711239755153656,-0.25190556049346924,2.8046138286590576
1691674092297656600,3.897656494140625,-0.41928282380104065,-0.2965097725391388,2.7382895946502686
1691674092307701500,3.907701416015625,-0.5172126889228821,-0.26406383514404297,2.602187395095825
1691674092317746700,3.91774658203125,-0.5709955096244812,-0.19224849343299866,2.4624345302581787
1691674092327792600,3.927792724609375,-0.6447137594223022,-0.11860747635364532,2.316744089126587
1691674092337837800,3.937837890625,-0.8102792501449585,-0.06603321433067322,2.174488067626953
1691674092347882500,3.947882568359375,-1.0476408004760742,-0.014150163158774376,2.0420517921447754
1691674092357928400,3.957928466796875,-1.3215192556381226,0.04460236430168152,1.9511985778808594
1691674092367973600,3.9679736328125,-1.6112457513809204,0.034557633101940155,1.9328168630599976
1691674092378018600,3.9780185546875,-1.8882739543914795,-0.055340297520160675,2.000133514404297
1691674092388064500,3.988064453125,-2.1413943767547607,-0.2366396188735962,2.153541088104248
1691674092398109700,3.998109619140625,-2.3554422855377197,-0.533794105052948,2.380124807357788
1691674092408155600,4.00815576171875,-2.507755756378174,-0.9993118643760681,2.682553768157959
1691674092418200600,4.01820068359375,-2.5751309394836426,-1.6590455770492554,3.0725889205932617
1691674092428245500,4.02824560546875,-2.623279571533203,-2.3965296745300293,3.484346628189087
1691674092438291500,4.03829150390625,-2.758763551712036,-3.1586484909057617,3.8903326988220215
1691674092448336600,4.048336669921875,-3.0520272254943848,-3.9451968669891357,4.262822151184082
1691674092458381600,4.058381591796875,-3.480811595916748,-4.721618175506592,4.580353736877441
1691674092468427800,4.068427734375,-4.009060859680176,-5.441037178039551,4.795206069946289
1691674092478472700,4.07847265625,-4.565314292907715,-6.1161065101623535,4.894876480102539
1691674092488521700,4.088521728515625,-5.0387420654296875,-6.700076103210449,4.88820743560791
1691674092498568000,4.09856787109375,-5.410275459289551,-7.151093006134033,4.829195022583008
1691674092508612900,4.10861279296875,-5.66778039932251,-7.451535224914551,4.725491046905518
1691674092518658000,4.118657958984375,-5.797786712646484,-7.605928421020508,4.583864688873291
1691674092528704000,4.1287041015625,-5.774604797363281,-7.594301223754883,4.410310745239258
1691674092538748700,4.138748779296875,-5.559816837310791,-7.3663153648376465,4.22186803817749
1691674092548794600,4.148794677734375,-5.145602226257324,-6.966468334197998,4.018008708953857
1691674092558839800,4.15883984375,-4.625026702880859,-6.450163841247559,3.7969353199005127
1691674092568884700,4.168884765625,-4.122722148895264,-5.804435729980469,3.502155303955078
1691674092578931000,4.178930908203125,-3.681753396987915,-5.063669204711914,3.1241984367370605
1691674092588975900,4.188975830078125,-3.3016109466552734,-4.267772197723389,2.660881996154785
1691674092599021000,4.19902099609375,-2.9853222370147705,-3.463487148284912,2.1276237964630127
1691674092609067000,4.20906689453125,-2.737420082092285,-2.6880571842193604,1.5430254936218262
1691674092619111700,4.219111572265625,-2.544196128845215,-1.9680424928665161,0.9498915672302246
1691674092629156900,4.229156982421875,-2.381913423538208,-1.308294415473938,0.38192859292030334
1691674092639202800,4.239202880859375,-2.2509796619415283,-0.7085184454917908,-0.14614881575107574
1691674092649248000,4.249248046875,-2.1586408615112305,-0.20007191598415375,-0.6060130000114441
1691674092659293000,4.25929296875,-2.0814905166625977,0.21785928308963776,-0.971169114112854
1691674092669339000,4.2693388671875,-2.011319875717163,0.5169593095779419,-1.2261306047439575
1691674092679383800,4.2793837890625,-1.9393463134765625,0.6978670358657837,-1.4280896186828613
1691674092689428700,4.2894287109375,-1.8753618001937866,0.8064392805099487,-1.587175726890564
1691674092699474700,4.299474609375,-1.8178870677947998,0.8859612941741943,-1.6922179460525513
1691674092709520000,4.309519775390625,-1.7562094926834106,0.9393396377563477,-1.755267858505249
1691674092719564800,4.319564697265625,-1.6910805702209473,0.9516101479530334,-1.7866380214691162
1691674092729611000,4.329611083984375,-1.6231526136398315,0.9097020626068115,-1.7705998420715332
1691674092739656000,4.339656005859375,-1.5176092386245728,0.8304376006126404,-1.676016926765442
1691674092749702000,4.349701904296875,-1.3722174167633057,0.7058055996894836,-1.52493417263031
1691674092759746800,4.359746826171875,-1.2155593633651733,0.541698694229126,-1.3440067768096924
1691674092769791700,4.369791748046875,-1.0418301820755005,0.36459076404571533,-1.1671947240829468
1691674092779838000,4.379837890625,-0.852848470211029,0.18645112216472626,-0.9868484139442444
1691674092789883000,4.3898828125,-0.645614743232727,0.022944120690226555,-0.8025121092796326
1691674092799928000,4.399927978515625,-0.433710515499115,-0.1027059480547905,-0.6154165267944336
1691674092809974000,4.40997412109375,-0.22745001316070557,-0.2010391652584076,-0.44244667887687683
1691674092820018700,4.420018798828125,-0.04054085165262222,-0.26330360770225525,-0.2859148681163788
1691674092830063900,4.43006396484375,0.14912202954292297,-0.24610677361488342,-0.1599569320678711
1691674092840109800,4.44010986328125,0.3838314712047577,-0.20807230472564697,-0.059133656322956085
1691674092850154800,4.45015478515625,0.6608018279075623,-0.16793741285800934,0.03234832361340523
1691674092860200000,4.460199951171875,0.9337167143821716,-0.08692111819982529,0.11897904425859451
1691674092870246000,4.470245849609375,1.2096548080444336,0.04114203900098801,0.17953404784202576
1691674092880290800,4.480290771484375,1.4901762008666992,0.18358707427978516,0.2226325273513794
1691674092890336800,4.490336669921875,1.7642725706100464,0.3246896266937256,0.2735062837600708
1691674092900381700,4.500381591796875,2.0211424827575684,0.4761689007282257,0.3155440092086792
1691674092910427000,4.510427001953125,2.2526869773864746,0.659650444984436,0.32317593693733215
1691674092920472800,4.520472900390625,2.454867124557495,0.8430263996124268,0.30709150433540344
1691674092930518000,4.53051806640625,2.629973888397217,1.004439353942871,0.27784448862075806
1691674092940563000,4.54056298828125,2.7996416091918945,1.1666938066482544,0.22857467830181122
1691674092950609000,4.55060888671875,2.979527711868286,1.3070796728134155,0.1741439253091812
1691674092960653800,4.56065380859375,3.1646556854248047,1.432727336883545,0.11789610236883163
1691674092970698800,4.57069873046875,3.3460512161254883,1.5391974449157715,0.058338046073913574
1691674092980745000,4.580744873046875,3.510101318359375,1.626064419746399,-0.012288986705243587
1691674092990790000,4.590789794921875,3.6497409343719482,1.7029556035995483,-0.11298871040344238
1691674093000834800,4.600834716796875,3.7953298091888428,1.787020206451416,-0.25012072920799255
1691674093010881000,4.610881103515625,3.945183515548706,1.8576918840408325,-0.414004385471344
1691674093020925700,4.62092578125,4.114578723907471,1.9127861261367798,-0.5620596408843994
1691674093030971000,4.630970947265625,4.330202102661133,1.9816519021987915,-0.666240930557251
1691674093041016800,4.641016845703125,4.58979606628418,2.063410520553589,-0.6932416558265686
1691674093051061800,4.651061767578125,4.839653015136719,2.1385128498077393,-0.6484740376472473
1691674093061108000,4.66110791015625,5.069514274597168,2.197460889816284,-0.5753564238548279
1691674093071153000,4.67115283203125,5.247997283935547,2.2367398738861084,-0.498319536447525
1691674093081198000,4.681197998046875,5.350699424743652,2.2573776245117188,-0.4218977391719818
1691674093091243800,4.691243896484375,5.389142990112305,2.246833562850952,-0.3438278138637543
1691674093101288700,4.701288818359375,5.367245197296143,2.2193171977996826,-0.2705216407775879
1691674093111334000,4.711333984375,5.265907287597656,2.169127941131592,-0.20192000269889832
1691674093121379800,4.7213798828125,5.106966972351074,2.0970585346221924,-0.1462165266275406
1691674093131425000,4.731425048828125,4.90275764465332,2.0478830337524414,-0.1261162906885147
1691674093141470000,4.741469970703125,4.6469407081604,2.0370280742645264,-0.14960351586341858
1691674093151516000,4.751515869140625,4.3824028968811035,2.014256477355957,-0.1826716810464859
1691674093161560800,4.761560791015625,4.091515064239502,1.9920953512191772,-0.20222380757331848
1691674093171606800,4.771606689453125,3.794879198074341,1.9770551919937134,-0.24416890740394592
1691674093181651700,4.781651611328125,3.5686211585998535,2.0245137214660645,-0.34495702385902405
1691674093191697000,4.79169677734375,3.406015396118164,2.150148630142212,-0.4889132082462311
1691674093201742800,4.801742919921875,3.3626224994659424,2.302192449569702,-0.6354525685310364
1691674093211788000,4.8117880859375,3.4898228645324707,2.4502816200256348,-0.7889649868011475
1691674093221832700,4.821832763671875,3.742262125015259,2.5454444885253906,-0.9038004875183105
1691674093231878700,4.831878662109375,4.044334411621094,2.5920865535736084,-0.9359357953071594
1691674093241923800,4.841923828125,4.315461158752441,2.600355386734009,-0.8992113471031189
1691674093251968800,4.85196875,4.488111972808838,2.676192045211792,-0.8533286452293396
1691674093262015000,4.862014892578125,4.482760906219482,2.920253038406372,-0.90336012840271
1691674093272060000,4.872059814453125,4.249217987060547,3.2877399921417236,-1.0694235563278198
1691674093282105000,4.88210498046875,3.7864766120910645,3.6928112506866455,-1.3200618028640747
1691674093292151000,4.892151123046875,3.165081739425659,4.050882816314697,-1.6239944696426392
1691674093302195700,4.90219580078125,2.4904942512512207,4.276162624359131,-1.9153640270233154
1691674093312242000,4.912241943359375,1.8464417457580566,4.387594699859619,-2.120391368865967
1691674093322286800,4.922286865234375,1.2773114442825317,4.392463207244873,-2.2123517990112305
1691674093332331800,4.932331787109375,0.8177282810211182,4.2345871925354,-2.1817240715026855
1691674093342378000,4.9423779296875,0.4882396161556244,3.8946895599365234,-2.0549697875976562
1691674093352423000,4.9524228515625,0.2569108009338379,3.452084541320801,-1.87114417552948
1691674093362467800,4.9624677734375,0.11062896251678467,3.0143606662750244,-1.654322862625122
1691674093372513800,4.972513671875,0.037785228341817856,2.7112338542938232,-1.4854105710983276
1691674093382558700,4.982558837890625,-0.0018942736787721515,2.4967684745788574,-1.3855398893356323
1691674093392604000,4.99260400390625,-0.044256363064050674,2.386836051940918,-1.2873096466064453
1691674093402649900,5.00264990234375,-0.08158775418996811,2.452242374420166,-1.1723284721374512
1691674093412695000,5.012695068359375,-0.10334061086177826,2.6547043323516846,-1.0805927515029907
1691674093422739700,5.02273974609375,-0.12115156650543213,2.918137550354004,-1.0478246212005615
1691674093432785700,5.03278564453125,-0.16545456647872925,3.1773409843444824,-1.0486392974853516
1691674093442830800,5.042830810546875,-0.21751989424228668,3.3632428646087646,-1.0326308012008667
1691674093452876800,5.052876708984375,-0.2599516212940216,3.4377992153167725,-0.9427884221076965
1691674093462922000,5.062921875,-0.30319470167160034,3.3596858978271484,-0.733164370059967
1691674093472967000,5.072966796875,-0.353471577167511,3.088254928588867,-0.4048590660095215
1691674093483012900,5.083012939453125,-0.3716415464878082,2.678227424621582,-0.01513472106307745
1691674093493054200,5.09305419921875,-0.39933982491493225,2.2545642852783203,0.31040263175964355
1691674093503099100,5.10309912109375,-0.4524208903312683,1.8222708702087402,0.5243394374847412
1691674093513145000,5.11314501953125,-0.5494300723075867,1.4290634393692017,0.6858139634132385
1691674093523190300,5.123190185546875,-0.657220721244812,1.1894810199737549,0.8477908372879028
1691674093533235200,5.133235107421875,-0.7711974382400513,1.0237046480178833,1.029442548751831
1691674093543281400,5.143281494140625,-0.9545297026634216,0.8539448380470276,1.2171381711959839
1691674093553326000,5.153326171875,-1.2468398809432983,0.6895818114280701,1.3518495559692383
1691674093563371300,5.163371337890625,-1.6126892566680908,0.5677861571311951,1.4011057615280151
1691674093573417200,5.173417236328125,-2.0015671253204346,0.5140097737312317,1.362069010734558
1691674093583462100,5.183462158203125,-2.3186492919921875,0.554029643535614,1.2733635902404785
1691674093593508400,5.19350830078125,-2.4901270866394043,0.6053339242935181,1.2218316793441772
1691674093603553300,5.20355322265625,-2.480241060256958,0.6218699812889099,1.2424477338790894
1691674093613598500,5.213598388671875,-2.3371660709381104,0.6431115865707397,1.2429074048995972
1691674093623644400,5.22364453125,-2.176020622253418,0.5969755053520203,1.1382795572280884
1691674093633689000,5.233689208984375,-2.123194694519043,0.5551052689552307,0.9825026392936707
1691674093643734300,5.243734375,-2.3124115467071533,0.5676548480987549,0.8344377875328064
1691674093653780200,5.2537802734375,-2.703139066696167,0.5051058530807495,0.7676109671592712
1691674093663825200,5.2638251953125,-3.268073320388794,0.40040287375450134,0.8016184568405151
1691674093673870300,5.273870361328125,-3.9913241863250732,0.32395637035369873,0.964705228805542
1691674093683916300,5.283916259765625,-4.7320942878723145,0.26348716020584106,1.2820229530334473
1691674093693961200,5.293961181640625,-5.258171558380127,0.21568377315998077,1.7688746452331543
1691674093704007200,5.304007080078125,-5.455981731414795,0.15958082675933838,2.263674020767212
1691674093714052000,5.314052001953125,-5.53611421585083,0.2976084053516388,2.611281156539917
1691674093724097300,5.32409716796875,-5.629178524017334,0.6536818146705627,2.7635796070098877
1691674093734143200,5.334143310546875,-5.728187561035156,1.0744061470031738,2.826284170150757
1691674093744188400,5.3441884765625,-5.797203063964844,1.436241865158081,2.8920204639434814
1691674093754233000,5.354233154296875,-5.850011348724365,1.7195683717727661,2.9959511756896973
1691674093764279000,5.364279052734375,-5.854507923126221,1.9438427686691284,3.144805431365967
1691674093774324200,5.37432421875,-5.797637939453125,2.060516834259033,3.335641384124756
1691674093784369200,5.384369140625,-5.743109226226807,2.0168843269348145,3.6099281311035156
1691674093794415400,5.394415283203125,-5.727084159851074,1.8643825054168701,3.9309444427490234
1691674093804460300,5.404460205078125,-5.748036861419678,1.6295239925384521,4.226705551147461
1691674093814505200,5.414505126953125,-5.7801833152771,1.3594387769699097,4.466314315795898
1691674093824551400,5.424551513671875,-5.782423973083496,1.1155619621276855,4.659000396728516
1691674093834596000,5.43459619140625,-5.721508502960205,0.8507258892059326,4.815011024475098
1691674093844642000,5.44464208984375,-5.61705207824707,0.4929203391075134,4.933050155639648
1691674093854687200,5.454687255859375,-5.383188724517822,-0.14333823323249817,5.028120040893555
1691674093864732200,5.464732177734375,-5.0160040855407715,-1.2790517807006836,5.054142475128174
1691674093874778400,5.4747783203125,-4.686952590942383,-2.6087868213653564,4.972487449645996
1691674093884823300,5.4848232421875,-4.498964786529541,-3.7665562629699707,4.733592510223389
1691674093894868200,5.4948681640625,-4.509418964385986,-4.523063659667969,4.374573707580566
1691674093904914200,5.5049140625,-4.670955181121826,-4.7871551513671875,3.802889585494995
1691674093914959000,5.514958984375,-4.863185405731201,-4.585365295410156,2.9061391353607178
1691674093925004300,5.52500439453125,-4.924590587615967,-3.9992921352386475,1.7363523244857788
1691674093935050200,5.53505029296875,-4.729595184326172,-3.1685986518859863,0.5015155076980591
1691674093945095400,5.545095458984375,-4.148027420043945,-2.402937412261963,-0.6563183069229126
1691674093955141400,5.555141357421875,-3.1401922702789307,-1.8085051774978638,-1.6390291452407837
1691674093965186000,5.56518603515625,-1.9409468173980713,-1.466330885887146,-2.3311779499053955
1691674093975231200,5.575231201171875,-0.8272269368171692,-1.4470877647399902,-2.6115689277648926
1691674093985277200,5.585277099609375,0.01705419458448887,-1.5309025049209595,-2.573561668395996
1691674093995322000,5.595322021484375,0.6606497764587402,-1.6364299058914185,-2.365177631378174
1691674094005367300,5.6053671875,1.2862473726272583,-1.7783961296081543,-2.119391918182373
1691674094015413200,5.615413330078125,1.9915118217468262,-1.965999722480774,-1.9375725984573364
1691674094025458400,5.62545849609375,2.7271809577941895,-2.1116483211517334,-1.963168740272522
1691674094035503000,5.635503173828125,3.451935291290283,-2.1669466495513916,-2.2370855808258057
1691674094045549000,5.645549072265625,4.15375280380249,-2.1792168617248535,-2.6330809593200684
1691674094055594200,5.65559423828125,4.8641581535339355,-2.1297566890716553,-3.090730905532837
1691674094065639200,5.66563916015625,5.603118419647217,-2.059953451156616,-3.578714370727539
1691674094075685400,5.675685302734375,6.402253150939941,-1.9844496250152588,-4.014537811279297
1691674094085730300,5.685730224609375,7.271716117858887,-1.8732320070266724,-4.380216121673584
1691674094095775200,5.695775146484375,8.134851455688477,-1.6367957592010498,-4.680222511291504
1691674094105821200,5.7058212890625,8.78320026397705,-1.1841758489608765,-4.974241733551025
1691674094115866000,5.7158662109375,9.054140090942383,-0.6326589584350586,-5.397852897644043
1691674094125912000,5.725912109375,8.976043701171875,-0.19254416227340698,-5.9375433921813965
1691674094135957200,5.735957275390625,8.8704195022583,-0.04795696213841438,-6.4532389640808105
1691674094146002200,5.746002197265625,8.597317695617676,0.029300542548298836,-6.817015171051025
1691674094156048400,5.75604833984375,8.003377914428711,0.13229645788669586,-6.849681377410889
1691674094166093300,5.76609326171875,7.355186939239502,0.4241810441017151,-6.419772148132324
1691674094176138200,5.77613818359375,6.694906711578369,0.9815025329589844,-5.584611415863037
1691674094186184200,5.78618408203125,6.047279357910156,1.5130577087402344,-4.587660312652588
1691674094196229000,5.79622900390625,5.538266181945801,1.8216958045959473,-3.606262445449829
1691674094206275300,5.806275390625,5.188804626464844,1.8836196660995483,-2.772830009460449
1691674094216320300,5.8163203125,5.035496711730957,1.7410976886749268,-2.1544711589813232
1691674094226365400,5.826365478515625,5.119376182556152,1.4858324527740479,-1.7314419746398926
1691674094236411400,5.836411376953125,5.342039108276367,1.2443052530288696,-1.4677493572235107
1691674094246456000,5.8464560546875,5.556049346923828,1.1311534643173218,-1.389065146446228
1691674094256501200,5.856501220703125,5.715317726135254,1.1699286699295044,-1.4927318096160889
1691674094266547200,5.866547119140625,5.786766052246094,1.3392980098724365,-1.6997488737106323
1691674094276592000,5.876592041015625,5.635312557220459,1.5577633380889893,-1.9498493671417236
1691674094286637300,5.88663720703125,5.253389358520508,1.6626375913619995,-2.2070982456207275
1691674094296683300,5.896683349609375,4.771670818328857,1.6135766506195068,-2.3845927715301514
1691674094306728200,5.906728271484375,4.1912336349487305,1.5179084539413452,-2.378237724304199
1691674094316773000,5.916773193359375,3.5327024459838867,1.4568147659301758,-2.2130136489868164
1691674094326819000,5.926819091796875,2.919203281402588,1.4443247318267822,-1.9291157722473145
1691674094336864300,5.9368642578125,2.454249858856201,1.4147497415542603,-1.5843755006790161
1691674094346910200,5.94691015625,2.187485456466675,1.385393738746643,-1.22938072681427
1691674094356955400,5.956955322265625,2.025181770324707,1.3762248754501343,-0.9171713590621948
1691674094367000300,5.967000244140625,1.842179775238037,1.3651511669158936,-0.7229323983192444
1691674094377046300,5.97704638671875,1.5672810077667236,1.3674485683441162,-0.672580361366272
1691674094387091200,5.98709130859375,1.1646782159805298,1.4582815170288086,-0.7581434845924377
1691674094397136100,5.99713623046875,0.6652975082397461,1.7152596712112427,-0.9208554029464722
1691674094407182300,6.007182373046875,0.11817608773708344,2.141467332839966,-1.0323095321655273
1691674094417227300,6.017227294921875,-0.3802098333835602,2.6440858840942383,-1.0008060932159424
1691674094427272200,6.027272216796875,-0.7668113708496094,3.040088176727295,-0.8368286490440369
1691674094437318400,6.037318359375,-1.0472768545150757,3.170621395111084,-0.6403675079345703
1691674094447363000,6.047363037109375,-1.238460659980774,3.0189738273620605,-0.5161302089691162
1691674094457409000,6.057408935546875,-1.3425203561782837,2.682741403579712,-0.48379161953926086
1691674094467454200,6.0674541015625,-1.3142913579940796,2.315037250518799,-0.5779992938041687
1691674094477499100,6.0774990234375,-1.2500269412994385,1.9725313186645508,-0.7218312621116638
1691674094487545300,6.08754541015625,-1.365343689918518,1.6850923299789429,-0.7587080597877502
1691674094497593000,6.097593017578125,-1.803662657737732,1.5617263317108154,-0.601858377456665
1691674094507638300,6.10763818359375,-2.5662028789520264,1.5990697145462036,-0.265705943107605
1691674094517684200,6.117684326171875,-3.4625589847564697,1.6795674562454224,0.15034522116184235
1691674094527729200,6.127729248046875,-4.291611194610596,1.7036362886428833,0.5556458234786987
1691674094537774000,6.137774169921875,-4.958026885986328,1.6881200075149536,0.83505779504776
1691674094547820000,6.147820068359375,-5.388394355773926,1.7055474519729614,0.9858971238136292
1691674094557865200,6.157865234375,-5.491235733032227,1.8926408290863037,1.1377942562103271
1691674094567910100,6.16791015625,-5.260135173797607,2.0806586742401123,1.3118767738342285
1691674094577956000,6.1779560546875,-4.8564300537109375,2.1565051078796387,1.4483662843704224
1691674094588001000,6.1880009765625,-4.486992835998535,2.2765512466430664,1.5507616996765137
1691674094598047000,6.198046875,-4.282007217407227,2.503237247467041,1.6747345924377441
1691674094608092200,6.208092041015625,-4.251224994659424,2.7753665447235107,1.8465412855148315
1691674094618137000,6.21813720703125,-4.3430304527282715,3.0156145095825195,2.0685203075408936
1691674094628183000,6.22818310546875,-4.520440578460693,3.195474863052368,2.2713704109191895
1691674094638228200,6.238228271484375,-4.691995620727539,3.281249523162842,2.4029977321624756
1691674094648273000,6.24827294921875,-4.827155113220215,3.2522342205047607,2.5507168769836426
1691674094658319000,6.258319091796875,-4.870549201965332,3.0795843601226807,2.819014549255371
1691674094668364000,6.268364013671875,-4.76269006729126,2.7246267795562744,3.2366886138916016
1691674094678410000,6.278409912109375,-4.56483793258667,2.156222343444824,3.765451669692993
1691674094688455200,6.288455078125,-4.352543354034424,1.4248595237731934,4.319998741149902
1691674094698500000,6.2985,-4.1084113121032715,0.6123558878898621,4.781734466552734
1691674094708546000,6.308546142578125,-3.8701188564300537,-0.3929600417613983,5.029114246368408
1691674094718591200,6.31859130859375,-3.6825191974639893,-1.5014032125473022,4.994512557983398
1691674094728636000,6.328635986328125,-3.592224597930908,-2.4809582233428955,4.69989013671875
1691674094738682000,6.33868212890625,-3.5840137004852295,-3.2108919620513916,4.307506561279297
1691674094748727000,6.34872705078125,-3.5896003246307373,-3.700047731399536,3.81852126121521
1691674094758772200,6.358772216796875,-3.5289688110351562,-3.8354785442352295,3.171947956085205
1691674094768818200,6.368818115234375,-3.4014668464660645,-3.712916612625122,2.3773305416107178
1691674094778863000,6.378863037109375,-3.1347413063049316,-3.567197799682617,1.4991135597229004
1691674094788908000,6.388907958984375,-2.7281482219696045,-3.3783626556396484,0.63616943359375
1691674094798954000,6.3989541015625,-2.094264507293701,-3.2542011737823486,-0.033694520592689514
1691674094808999200,6.408999267578125,-1.2174128293991089,-3.374674081802368,-0.46902334690093994
1691674094819045000,6.419045166015625,-0.29577547311782837,-3.469088077545166,-0.7082631587982178
1691674094829090000,6.429090087890625,0.5190843939781189,-3.3414499759674072,-0.7756083607673645
1691674094839135200,6.43913525390625,1.2503483295440674,-3.056817054748535,-0.7512184977531433
1691674094849181200,6.44918115234375,1.9596447944641113,-2.695497751235962,-0.7084910273551941
1691674094859226000,6.45922607421875,2.6699163913726807,-2.3615882396698,-0.7386090159416199
1691674094869271000,6.46927099609375,3.378387212753296,-2.1156980991363525,-0.9521359205245972
1691674094879317000,6.47931689453125,4.0681843757629395,-1.9516139030456543,-1.3189592361450195
1691674094889362200,6.489362060546875,4.761919975280762,-1.8653619289398193,-1.741757869720459
1691674094899407000,6.499406982421875,5.546210289001465,-1.9156118631362915,-2.1665189266204834
1691674094909453000,6.509453125,6.360898971557617,-1.9597645998001099,-2.574618339538574
1691674094919498200,6.519498291015625,7.1908063888549805,-1.792024850845337,-2.907693862915039
1691674094929543000,6.52954296875,7.966723918914795,-1.3542126417160034,-3.232510805130005
1691674094939589000,6.539589111328125,8.556424140930176,-0.7446842789649963,-3.689129590988159
1691674094949634000,6.549634033203125,8.826194763183594,-0.13058516383171082,-4.407028675079346
1691674094959680000,6.559679931640625,8.936588287353516,0.2458096295595169,-5.103697776794434
1691674094969725200,6.56972509765625,9.143037796020508,0.5273747444152832,-5.299058437347412
1691674094979770000,6.57977001953125,9.177253723144531,0.8287478089332581,-4.999618053436279
1691674094989816000,6.589816162109375,8.839385986328125,1.0412805080413818,-4.373955726623535
1691674094999861000,6.599861083984375,8.16843318939209,1.1767789125442505,-3.6321327686309814
1691674095009906200,6.60990625,7.24049711227417,1.283457636833191,-3.006770610809326
1691674095019952000,6.6199521484375,6.295657634735107,1.3412604331970215,-2.6501734256744385
1691674095029997000,6.6299970703125,5.58574104309082,1.5092252492904663,-2.496363878250122
1691674095040043000,6.64004296875,5.21217679977417,1.820716381072998,-2.4531335830688477
1691674095050088200,6.650088134765625,5.196147918701172,2.124006986618042,-2.402499198913574
1691674095060133000,6.660133056640625,5.4526519775390625,2.345085382461548,-2.2753515243530273
1691674095070179300,6.670179443359375,5.861967086791992,2.503624439239502,-2.1014468669891357
1691674095080224000,6.68022412109375,6.251664638519287,2.6007063388824463,-1.9377211332321167
1691674095090269200,6.690269287109375,6.463707447052002,2.7051262855529785,-1.8301504850387573
1691674095100315100,6.700315185546875,6.381497859954834,2.872859477996826,-1.8383690118789673
1691674095110360000,6.710360107421875,5.970815658569336,3.1349880695343018,-2.022048234939575
1691674095120405200,6.7204052734375,5.325787544250488,3.509779214859009,-2.4039413928985596
1691674095130451200,6.730451171875,4.701908588409424,3.8730828762054443,-2.8826375007629395
1691674095140496100,6.74049609375,4.365896701812744,4.040013313293457,-3.236987829208374
1691674095150541000,6.750541015625,4.244422435760498,4.005788803100586,-3.329741954803467
1691674095160587000,6.7605869140625,4.132542610168457,3.870788097381592,-3.1674444675445557
1691674095170632200,6.770632080078125,3.858135938644409,3.6547329425811768,-2.858750581741333
1691674095180678100,6.78067822265625,3.3121490478515625,3.3903300762176514,-2.5181446075439453
1691674095190723000,6.79072314453125,2.459750175476074,3.1465957164764404,-2.2653703689575195
1691674095200768000,6.80076806640625,1.4545763731002808,2.944160223007202,-2.138223171234131
1691674095210814000,6.81081396484375,0.5020565390586853,2.7783193588256836,-2.041456460952759
1691674095220859100,6.820859130859375,-0.2715737819671631,2.5664584636688232,-1.84433114528656
1691674095230904000,6.830904052734375,-0.8366861343383789,2.2587389945983887,-1.5388176441192627
1691674095240950000,6.840949951171875,-1.2006465196609497,1.8660944700241089,-1.2042773962020874
1691674095250995200,6.8509951171875,-1.4104703664779663,1.4667383432388306,-0.8699768781661987
1691674095261040000,6.8610400390625,-1.5330134630203247,1.1143131256103516,-0.5631088018417358
1691674095271086300,6.87108642578125,-1.6210272312164307,0.8844667077064514,-0.2876545488834381
1691674095281131000,6.881131103515625,-1.7226433753967285,0.7583698034286499,-0.05920278653502464
1691674095291177000,6.891177001953125,-1.8828012943267822,0.7355225086212158,0.12782515585422516
1691674095301222100,6.90122216796875,-2.137542486190796,0.8548506498336792,0.2647395730018616
1691674095311267000,6.91126708984375,-2.4787089824676514,1.067218542098999,0.3168882727622986
1691674095321313000,6.92131298828125,-2.809824228286743,1.2847074270248413,0.28235799074172974
1691674095331358200,6.931358154296875,-3.050180196762085,1.5336503982543945,0.28610265254974365
1691674095341403000,6.94140283203125,-3.1767992973327637,1.9019840955734253,0.5000070929527283
1691674095351449000,6.951448974609375,-3.214075803756714,2.26362681388855,0.9572662115097046
1691674095361494000,6.961493896484375,-3.306403875350952,2.504274368286133,1.56903874874115
1691674095371539200,6.971539306640625,-3.6340901851654053,2.628194570541382,2.2066750526428223
1691674095381585200,6.981585205078125,-4.102006435394287,2.614586114883423,2.7725143432617188
1691674095391630000,6.991630126953125,-4.540539264678955,2.435749053955078,3.25144100189209
1691674095401676300,7.00167626953125,-4.858731746673584,2.0929505825042725,3.6496236324310303
1691674095411721000,7.011720947265625,-5.0275797843933105,1.6845605373382568,3.9122352600097656
1691674095421766100,7.02176611328125,-5.058885097503662,1.2986279726028442,4.026607513427734
1691674095431812000,7.03181201171875,-5.034373760223389,0.9966428279876709,4.007175445556641
1691674095441857000,7.04185693359375,-5.041592597961426,0.8260114192962646,3.9181463718414307
1691674095451902200,7.051902099609375,-5.104863166809082,0.779746949672699,3.801832437515259
1691674095461948200,7.0619482421875,-5.180404186248779,0.7811787128448486,3.6466705799102783
1691674095471993000,7.0719931640625,-5.248901844024658,0.8410247564315796,3.492203712463379
1691674095482038000,7.0820380859375,-5.318921089172363,0.9534643888473511,3.447067975997925
1691674095492081200,7.0920810546875,-5.3319854736328125,0.8625512719154358,3.5796217918395996
1691674095502126300,7.102126220703125,-5.229012489318848,0.5294032096862793,3.791656255722046
1691674095512172300,7.11217236328125,-5.050108909606934,0.08823143690824509,3.9723687171936035
1691674095522217000,7.122217041015625,-4.848413467407227,-0.3903485834598541,4.087000846862793
1691674095532262100,7.13226220703125,-4.597357273101807,-0.9500611424446106,4.176477909088135
1691674095542308000,7.14230810546875,-4.223527908325195,-1.5723017454147339,4.278979778289795
1691674095552353000,7.15235302734375,-3.7612640857696533,-2.1213533878326416,4.261677265167236
1691674095562398200,7.162398193359375,-3.279604911804199,-2.5552010536193848,3.987767219543457
1691674095572444200,7.172444091796875,-2.8686981201171875,-2.7946152687072754,3.462231159210205
1691674095582489000,7.182489013671875,-2.5633432865142822,-2.777683734893799,2.787785530090332
1691674095592534000,7.192533935546875,-2.2874081134796143,-2.743433952331543,2.14483380317688
1691674095602580000,7.202580078125,-2.0952861309051514,-2.7076656818389893,1.5872583389282227
1691674095612625200,7.212625244140625,-1.9753990173339844,-2.5948381423950195,1.125402569770813
1691674095622670000,7.222670166015625,-1.826555609703064,-2.5115866661071777,0.8022337555885315
1691674095632716300,7.23271630859375,-1.6408640146255493,-2.4158387184143066,0.6253356337547302
1691674095642761000,7.242760986328125,-1.4239798784255981,-2.139496326446533,0.5447321534156799
1691674095652807000,7.252806884765625,-1.2077275514602661,-1.6505489349365234,0.4904276430606842
1691674095662852000,7.26285205078125,-0.9992724061012268,-1.058957815170288,0.39196282625198364
1691674095672897000,7.27289697265625,-0.7904244065284729,-0.46231579780578613,0.2052168995141983
1691674095682943200,7.282943115234375,-0.43336981534957886,-0.07985313981771469,-0.035980142652988434
1691674095692988200,7.29298828125,0.2634883522987366,-0.0687488242983818,-0.39784538745880127
1691674095703033000,7.303033203125,1.1660434007644653,-0.39458248019218445,-0.9153711199760437
1691674095713079300,7.313079345703125,2.144498825073242,-0.8559495806694031,-1.5922495126724243
1691674095723124000,7.3231240234375,3.1877429485321045,-1.210065484046936,-2.3420286178588867
1691674095733169200,7.333169189453125,4.30293607711792,-1.4132596254348755,-3.042536497116089
1691674095743215000,7.343215087890625,5.481476783752441,-1.4418410062789917,-3.5331192016601562
1691674095753260000,7.353260009765625,6.655743598937988,-1.1138501167297363,-3.708340883255005
1691674095763306200,7.36330615234375,7.696874141693115,-0.4214577376842499,-3.576261043548584
1691674095773351200,7.37335107421875,8.421586036682129,0.4048958420753479,-3.2681291103363037
1691674095783396000,7.38339599609375,8.754932403564453,1.1314393281936646,-2.9798619747161865
1691674095793442000,7.393442138671875,8.730659484863281,1.6236681938171387,-2.944403886795044
1691674095803487000,7.403487060546875,8.529057502746582,1.8965611457824707,-3.2306723594665527
1691674095813532200,7.4135322265625,8.344456672668457,2.064098358154297,-3.730682373046875
1691674095823578000,7.423578125,8.279162406921387,2.2402424812316895,-4.2759199142456055
1691674095833623300,7.433623291015625,8.452528953552246,2.4010839462280273,-4.6438517570495605
1691674095843668200,7.443668212890625,8.877352714538574,2.3797457218170166,-4.734804630279541
1691674095853714200,7.453714111328125,9.367446899414062,2.050215721130371,-4.546611785888672
1691674095863759000,7.463759033203125,9.72610092163086,1.4575577974319458,-4.040607452392578
1691674095873805000,7.47380517578125,9.678227424621582,0.8710135817527771,-3.266296863555908
1691674095883850000,7.48385009765625,9.033331871032715,0.4775905907154083,-2.3444430828094482
1691674095893895200,7.493895263671875,7.8708882331848145,0.394305557012558,-1.4636175632476807
1691674095903941000,7.503941162109375,6.4542741775512695,0.5665248036384583,-0.8103150725364685
1691674095913986300,7.513986328125,5.0670881271362305,0.9099562168121338,-0.4841473698616028
1691674095924031000,7.524031005859375,3.9791147708892822,1.330661416053772,-0.4512758255004883
1691674095934077000,7.534076904296875,3.2327136993408203,1.8314234018325806,-0.6665617823600769
1691674095944122000,7.5441220703125,2.7788970470428467,2.4460978507995605,-1.0505226850509644
1691674095954167000,7.5541669921875,2.633559226989746,3.087308883666992,-1.4652674198150635
1691674095964213200,7.564213134765625,2.768073320388794,3.6803359985351562,-1.8111060857772827
1691674095974258200,7.574258056640625,3.039437770843506,4.093806743621826,-2.0769217014312744
1691674095984304000,7.58430419921875,3.3007125854492188,4.218578338623047,-2.2740986347198486
1691674095994349000,7.59434912109375,3.451765775680542,4.108189105987549,-2.389699935913086
1691674096004394000,7.60439404296875,3.47961688041687,3.8517558574676514,-2.3748884201049805
1691674096014440000,7.61443994140625,3.328991413116455,3.537492036819458,-2.2375428676605225
1691674096024485000,7.624485107421875,2.996412515640259,3.1093790531158447,-2.0482380390167236
1691674096034530000,7.634530029296875,2.5684406757354736,2.5648305416107178,-1.828574776649475
1691674096044576300,7.644576171875,2.0717852115631104,1.9510835409164429,-1.5723704099655151
1691674096054621200,7.65462109375,1.5060838460922241,1.3177490234375,-1.2504311800003052
1691674096064666000,7.664666015625,0.9424074292182922,0.6389449238777161,-0.8832486271858215
1691674096074712000,7.674712158203125,0.4817407727241516,-0.054300110787153244,-0.520828902721405
1691674096084757000,7.684757080078125,0.13600170612335205,-0.7141333818435669,-0.22044025361537933
1691674096094803200,7.69480322265625,-0.09903691709041595,-1.3423733711242676,0.02972777746617794
1691674096104848100,7.70484814453125,-0.19637438654899597,-1.8566768169403076,0.22699344158172607
1691674096114893300,7.714893310546875,-0.22669953107833862,-2.166393280029297,0.32742711901664734
1691674096124939300,7.724939208984375,-0.34302645921707153,-2.213581085205078,0.2789170742034912
1691674096134984000,7.73498388671875,-0.6601863503456116,-2.0068202018737793,0.12456396967172623
1691674096145029000,7.745029052734375,-1.1752718687057495,-1.5243421792984009,-0.05842061713337898
1691674096155075000,7.755074951171875,-1.8273454904556274,-0.7847424745559692,-0.24070601165294647
1691674096165120000,7.7651201171875,-2.6236789226531982,0.1576034128665924,-0.4065246284008026
1691674096175165200,7.775165283203125,-3.5014166831970215,1.1737260818481445,-0.48040977120399475
1691674096185211100,7.785211181640625,-4.296481609344482,2.054370641708374,-0.38777658343315125
1691674096195256000,7.795256103515625,-4.8876519203186035,2.7549996376037598,-0.1127505898475647
1691674096205301000,7.805301025390625,-5.254941940307617,3.2721481323242188,0.3037317395210266
1691674096215347000,7.815346923828125,-5.412167549133301,3.6117916107177734,0.7955784797668457
1691674096225392000,7.82539208984375,-5.324188709259033,3.7443270683288574,1.3271564245224
1691674096235438000,7.83543798828125,-5.0707550048828125,3.641765594482422,1.8188886642456055
1691674096245483300,7.845483154296875,-4.818944931030273,3.379570484161377,2.1861610412597656
1691674096255528200,7.855528076171875,-4.696800708770752,3.0391697883605957,2.466552972793579
1691674096265574100,7.86557421875,-4.725011825561523,2.626185655593872,2.6977689266204834
1691674096275619000,7.875619140625,-4.888866424560547,2.2340803146362305,2.896355390548706
1691674096285664000,7.8856640625,-5.178867816925049,1.8546394109725952,2.988659381866455
1691674096295710200,7.895710205078125,-5.513534069061279,1.4389357566833496,2.9599573612213135
1691674096305755100,7.905755126953125,-5.778172969818115,1.0656611919403076,2.884108066558838
1691674096315800000,7.915800048828125,-5.924348831176758,0.7302641868591309,2.8415305614471436
1691674096325846300,7.92584619140625,-5.971622467041016,0.46430015563964844,2.8918750286102295
1691674096335891000,7.935890869140625,-5.902664661407471,0.1793839931488037,3.0716171264648438
1691674096345937000,7.94593701171875,-5.759716033935547,-0.23022028803825378,3.396174192428589
1691674096355982000,7.955982177734375,-5.612062931060791,-0.7919914722442627,3.78376841545105
1691674096366027000,7.966027099609375,-5.506214141845703,-1.4413563013076782,4.1041460037231445
1691674096376073200,7.9760732421875,-5.4938178062438965,-2.0929737091064453,4.2873215675354
1691674096386118100,7.9861181640625,-5.534388065338135,-2.613659620285034,4.320981502532959
1691674096396163300,7.996163330078125,-5.5696845054626465,-2.993190050125122,4.182529926300049
1691674096406209000,8.006208984375,-5.535785675048828,-3.199327230453491,3.859978199005127
1691674096416254000,8.01625390625,-5.330005168914795,-3.261516571044922,3.3071203231811523
1691674096426299100,8.026299072265624,-4.9775285720825195,-3.119377613067627,2.616791009902954
1691674096436345000,8.036344970703125,-4.53379487991333,-2.8055148124694824,1.9143004417419434
1691674096446390300,8.046390380859375,-4.072587966918945,-2.384585380554199,1.2875808477401733
1691674096456436200,8.056436279296875,-3.5479819774627686,-1.888284683227539,0.7546203136444092
1691674096466481200,8.066481201171875,-2.937467098236084,-1.4608160257339478,0.2709254026412964
1691674096476526000,8.076526123046875,-2.362804651260376,-1.16767418384552,-0.2375761717557907
1691674096486572000,8.086572021484375,-1.856888771057129,-0.8328883647918701,-0.6836409568786621
1691674096496617000,8.096616943359376,-1.3481229543685913,-0.3296193480491638,-1.0586382150650024
1691674096506662000,8.106661865234376,-0.7624399065971375,0.1703687161207199,-1.4102861881256104
1691674096516707800,8.116707763671876,-0.022394299507141113,0.4730505347251892,-1.7302137613296509
1691674096526753000,8.1267529296875,0.8394092917442322,0.4983970820903778,-2.017366886138916
1691674096536798000,8.1367978515625,1.7749724388122559,0.3010893166065216,-2.287163734436035
1691674096546844000,8.146843994140625,2.74226713180542,-0.11010236293077469,-2.451018810272217
1691674096556888800,8.156888916015625,3.8284003734588623,-0.7189212441444397,-2.559779167175293
1691674096566934800,8.166934814453125,4.915170669555664,-1.3943004608154297,-2.654733419418335
1691674096576980000,8.17697998046875,5.873712539672852,-1.9428919553756714,-2.7317497730255127
1691674096587025000,8.18702490234375,6.657833576202393,-2.1416022777557373,-2.772439479827881
1691674096597070800,8.19707080078125,7.252092361450195,-1.9354593753814697,-2.8332769870758057
1691674096607116000,8.207115966796875,7.7245402336120605,-1.4495761394500732,-2.942605972290039
1691674096617160700,8.21716064453125,8.100687026977539,-0.750245988368988,-3.1371772289276123
1691674096627207000,8.22720703125,8.210521697998047,0.014704970642924309,-3.4881081581115723
1691674096637251800,8.237251953125,8.024490356445312,0.7096222639083862,-4.024835586547852
1691674096647297000,8.247297119140624,7.762797832489014,1.2919305562973022,-4.6647820472717285
1691674096657343000,8.257343017578124,7.597967624664307,1.8087843656539917,-5.283936023712158
1691674096667388000,8.267387939453124,7.535080909729004,2.2648160457611084,-5.793653964996338
1691674096677433000,8.27743310546875,7.536023139953613,2.522109031677246,-6.168333053588867
1691674096687479000,8.28747900390625,7.577780246734619,2.5505990982055664,-6.312406539916992
1691674096697523700,8.297523681640625,7.602778434753418,2.3754780292510986,-6.173007965087891
1691674096707570000,8.30756982421875,7.461495876312256,2.1572580337524414,-5.7933549880981445
1691674096717614800,8.31761474609375,7.130167007446289,1.9664047956466675,-5.25938606262207
1691674096727660000,8.327659912109375,6.628564834594727,1.8725184202194214,-4.685035228729248
1691674096737706000,8.3377060546875,6.049607276916504,1.8438053131103516,-4.153110504150391
1691674096747751000,8.3477509765625,5.508457660675049,1.8162606954574585,-3.698178291320801
1691674096757795800,8.3577958984375,5.078629016876221,1.717647910118103,-3.3254892826080322
1691674096767841800,8.367841796875,4.78514289855957,1.5687427520751953,-3.0062270164489746
1691674096777887000,8.377886962890624,4.624704837799072,1.4344310760498047,-2.724266767501831
1691674096787932000,8.387931884765624,4.549493312835693,1.2957426309585571,-2.4886059761047363
1691674096797977900,8.397977783203125,4.4870219230651855,1.1800620555877686,-2.2983033657073975
1691674096808023000,8.40802294921875,4.409095287322998,1.117043375968933,-2.1597044467926025
1691674096818069000,8.418069091796875,4.294503211975098,1.0901659727096558,-2.0985913276672363
1691674096828114000,8.428114013671875,4.119657516479492,1.1149340867996216,-2.1129910945892334
1691674096838158800,8.438158935546875,3.8745877742767334,1.212715744972229,-2.188552141189575
1691674096848204800,8.448204833984375,3.549470901489258,1.393570065498352,-2.3254265785217285
1691674096858250000,8.45825,3.157689332962036,1.5796555280685425,-2.494560956954956
1691674096868295000,8.468294921875,2.7294716835021973,1.7287765741348267,-2.6510536670684814
1691674096878340900,8.4783408203125,2.3232810497283936,1.8320257663726807,-2.7342591285705566
1691674096888386000,8.488385986328124,1.986921787261963,1.8961710929870605,-2.6859560012817383
1691674096898430700,8.4984306640625,1.7146146297454834,1.8784847259521484,-2.507763385772705
1691674096908477000,8.508476806640624,1.5038034915924072,1.7771471738815308,-2.2493605613708496
1691674096918521900,8.51852197265625,1.3302762508392334,1.6111810207366943,-1.9415035247802734
1691674096928567800,8.52856787109375,1.1007004976272583,1.4214638471603394,-1.6117688417434692
1691674096938613000,8.538613037109375,0.7595556974411011,1.2100979089736938,-1.3260761499404907
1691674096948658000,8.548657958984375,0.3525227904319763,1.0138200521469116,-1.1739537715911865
1691674096958703900,8.558703857421875,-0.009268161840736866,0.9520113468170166,-1.174437165260315
1691674096968748800,8.568748779296875,-0.25301310420036316,1.0824332237243652,-1.2794272899627686
1691674096978794000,8.5787939453125,-0.36021357774734497,1.3125872611999512,-1.429279088973999
1691674096988840000,8.58883984375,-0.4200636148452759,1.6018621921539307,-1.5532360076904297
1691674096998884900,8.598884765625,-0.5122936964035034,1.9163727760314941,-1.6166951656341553
1691674097008930000,8.608929931640626,-0.6457685828208923,2.4048383235931396,-1.6965490579605103
1691674097018976000,8.61897607421875,-0.8921453356742859,3.11106276512146,-1.931086540222168
1691674097029020700,8.629020751953124,-1.3179913759231567,4.03841495513916,-2.298811435699463
1691674097039067000,8.63906689453125,-1.8904743194580078,5.121226787567139,-2.511434316635132
1691674097049111800,8.64911181640625,-2.461559534072876,5.923220634460449,-2.2363626956939697
1691674097059157000,8.659156982421875,-2.9502696990966797,6.240060806274414,-1.3032126426696777
1691674097069203000,8.669202880859375,-3.264704465866089,6.063936233520508,0.21540895104408264
1691674097079248000,8.679247802734375,-3.359405279159546,5.436313152313232,2.070105791091919
1691674097089293000,8.68929296875,-3.2817435264587402,4.449859142303467,3.893768310546875
1691674097099339000,8.699339111328126,-3.254899263381958,3.3637757301330566,5.364049911499023
1691674097109384000,8.709384033203126,-3.366926908493042,2.2363369464874268,6.394771575927734
1691674097119428900,8.719428955078126,-3.5784921646118164,1.2001897096633911,7.01253080368042
1691674097129474800,8.729474853515624,-3.928889036178589,0.23093721270561218,7.249743938446045
1691674097139520000,8.73952001953125,-4.331799030303955,-0.6941181421279907,7.069056510925293
1691674097149566000,8.74956591796875,-4.729176998138428,-1.5081771612167358,6.430438995361328
1691674097159611000,8.75961083984375,-4.997803688049316,-2.0519423484802246,5.554720878601074
1691674097169655800,8.76965576171875,-5.095312118530273,-2.154196262359619,4.772117614746094
1691674097179701800,8.77970166015625,-5.26426887512207,-1.7497384548187256,4.303205966949463
1691674097189747000,8.789746826171875,-5.522028923034668,-0.9064630270004272,4.204554557800293
1691674097199791900,8.7997919921875,-5.736351490020752,0.10328996926546097,4.352280616760254
1691674097209837800,8.809837890625,-5.869339466094971,0.75322425365448,4.380837440490723
1691674097219883000,8.819883056640625,-5.840566158294678,0.8462181091308594,4.057808876037598
1691674097229928000,8.829927978515625,-5.5976362228393555,0.5438085794448853,3.4560649394989014
1691674097239974000,8.839973876953126,-5.276077747344971,0.09033297747373581,2.788499355316162
1691674097250018800,8.850018798828126,-5.0699663162231445,-0.1632886677980423,2.2450642585754395
1691674097260064800,8.860064697265624,-4.9341044425964355,-0.2903456687927246,1.917383074760437
1691674097270110000,8.87010986328125,-4.8038105964660645,-0.4915764331817627,1.9035797119140625
1691674097280155000,8.88015478515625,-4.650722503662109,-0.6795881390571594,2.1627817153930664
1691674097290200800,8.890200927734375,-4.380125999450684,-0.9203448295593262,2.551785707473755
1691674097300246000,8.90024609375,-3.955716133117676,-1.1726666688919067,2.944600820541382
1691674097310290700,8.910290771484375,-3.514206647872925,-1.344064712524414,3.242605447769165
1691674097320337000,8.9203369140625,-2.9806063175201416,-1.464438796043396,3.3341639041900635
1691674097330381800,8.9303818359375,-2.107142210006714,-1.6290738582611084,3.0570480823516846
1691674097340427000,8.940427001953125,-0.8886110782623291,-1.8885879516601562,2.390101909637451
1691674097350473000,8.950472900390626,0.4535781145095825,-2.167182207107544,1.505468487739563
1691674097360518000,8.960517822265626,1.5981440544128418,-2.2137486934661865,0.565741240978241
1691674097370564000,8.970564208984374,2.460662364959717,-1.9576064348220825,-0.3453078866004944
1691674097380608800,8.98060888671875,3.124541997909546,-1.5507060289382935,-1.22036612033844
1691674097390654000,8.990654052734374,3.7090630531311035,-1.1308815479278564,-2.0284762382507324
1691674097400700000,9.000699951171875,4.295482635498047,-0.7537750601768494,-2.7250590324401855
1691674097410744800,9.010744873046875,4.920461177825928,-0.40467044711112976,-3.286433219909668
1691674097420790000,9.0207900390625,5.5582404136657715,-0.007997672073543072,-3.6971383094787598
1691674097430836000,9.0308359375,6.207850456237793,0.4158072769641876,-3.971259355545044
1691674097440881000,9.040880859375,6.8221588134765625,0.7946475148200989,-4.166279315948486
1691674097450925800,9.05092578125,7.312037467956543,1.0346487760543823,-4.3360114097595215
1691674097460971800,9.0609716796875,7.670748710632324,1.0382157564163208,-4.474070072174072
1691674097471017000,9.071016845703125,7.992862701416016,0.8441044092178345,-4.530566215515137
1691674097481063000,9.08106298828125,8.229438781738281,0.5736731886863708,-4.465727806091309
1691674097491108000,9.091108154296874,8.301142692565918,0.3952908515930176,-4.329882621765137
1691674097501153300,9.1011533203125,8.224430084228516,0.434938907623291,-4.245734691619873
1691674097511199200,9.11119921875,8.0339994430542,0.712001383304596,-4.222111701965332
1691674097521244200,9.121244140625,7.766753673553467,1.2487555742263794,-4.2628936767578125
1691674097531289000,9.1312890625,7.525484561920166,2.040247678756714,-4.347532749176025
1691674097541335000,9.1413349609375,7.341202259063721,2.8877365589141846,-4.436175346374512
1691674097551380200,9.151380126953125,7.217942237854004,3.5983223915100098,-4.408421516418457
1691674097561425200,9.161425048828125,7.22747278213501,3.9774391651153564,-4.175514221191406
1691674097571471000,9.17147119140625,7.3130879402160645,3.881859302520752,-3.726632595062256
1691674097581516300,9.181516357421875,7.329140663146973,3.367814302444458,-3.1409435272216797
1691674097591562000,9.19156201171875,7.241464138031006,2.568952798843384,-2.575226306915283
1691674097601607200,9.201607177734376,6.937318325042725,1.7686268091201782,-2.1206533908843994
1691674097611652000,9.211652099609376,6.347932815551758,1.110265851020813,-1.8287334442138672
1691674097621698000,9.221697998046874,5.6335906982421875,0.650201141834259,-1.7063400745391846
1691674097631743200,9.2317431640625,4.960464000701904,0.4858095645904541,-1.683409333229065
1691674097641788200,9.2417880859375,4.4216156005859375,0.6591238379478455,-1.7466871738433838
1691674097651834400,9.25183447265625,4.037700176239014,1.0379685163497925,-1.8743659257888794
1691674097661879000,9.261879150390625,3.7999727725982666,1.5533522367477417,-2.0309112071990967
1691674097671924200,9.27192431640625,3.6949005126953125,2.171595335006714,-2.214576005935669
1691674097681970200,9.28197021484375,3.721165657043457,2.765580415725708,-2.344574213027954
1691674097692015000,9.29201513671875,3.846280813217163,3.1345889568328857,-2.2825944423675537
1691674097702061000,9.30206103515625,3.9304890632629395,3.2443885803222656,-2.0335021018981934
1691674097712106200,9.312106201171876,3.887108564376831,3.037996768951416,-1.6588367223739624
1691674097722151200,9.322151123046876,3.68765926361084,2.52140212059021,-1.1874903440475464
1691674097732197000,9.332197021484374,3.316298007965088,1.8195668458938599,-0.676950991153717
1691674097742242000,9.342241943359374,2.81166410446167,1.0979793071746826,-0.21219715476036072
1691674097752287200,9.352287353515624,2.248227596282959,0.49426180124282837,0.10730111598968506
1691674097762333200,9.362333251953125,1.6645448207855225,0.11050082743167877,0.25069716572761536
1691674097772378000,9.372378173828125,1.0553083419799805,-0.015605660155415535,0.24668939411640167
1691674097782423300,9.38242333984375,0.42333146929740906,0.00670550437644124,0.1409379243850708
1691674097792469200,9.39246923828125,-0.1784721463918686,0.0897330716252327,0.009401108138263226
1691674097802514200,9.40251416015625,-0.7165015339851379,0.18164727091789246,-0.09821750223636627
1691674097812560100,9.41256005859375,-1.1996207237243652,0.27536699175834656,-0.15631182491779327
1691674097822605000,9.42260498046875,-1.656620979309082,0.3605559170246124,-0.15976674854755402
1691674097832650200,9.432650146484375,-2.0006587505340576,0.3877384066581726,-0.045634523034095764
1691674097842696200,9.4426962890625,-2.1651315689086914,0.31444448232650757,0.21208304166793823
1691674097852741000,9.4527412109375,-2.1313960552215576,0.18878960609436035,0.6019060015678406
1691674097862786000,9.4627861328125,-2.010193109512329,0.08313082903623581,1.0609886646270752
1691674097872832000,9.47283203125,-2.051760673522949,0.0118134506046772,1.4672768115997314
1691674097882877200,9.482877197265625,-2.3517537117004395,-0.002280797343701124,1.7749730348587036
1691674097892922000,9.492922119140625,-2.924593448638916,0.036479827016592026,2.0277645587921143
1691674097902968000,9.502968017578125,-3.702971935272217,0.06380172818899155,2.2878832817077637
1691674097913013200,9.51301318359375,-4.569453239440918,0.04990972578525543,2.5528788566589355
1691674097923059200,9.52305908203125,-5.3710832595825195,-0.016930822283029556,2.8068082332611084
1691674097933104000,9.533104248046875,-5.931782245635986,-0.16338375210762024,3.0589499473571777
1691674097943149000,9.543149169921875,-6.16958475112915,-0.2962041199207306,3.284018039703369
1691674097953195000,9.553195068359376,-6.073901176452637,-0.3071557879447937,3.424253225326538
1691674097963240200,9.563240234375,-5.7204718589782715,-0.2059474140405655,3.448399782180786
1691674097973285000,9.57328515625,-5.286869525909424,-0.07240752875804901,3.391505479812622
1691674097983331300,9.583331298828124,-4.950305461883545,0.040390659123659134,3.2674357891082764
1691674097993376300,9.593376220703124,-4.7720627784729,0.11424650996923447,3.1059341430664062
1691674098003421200,9.603421142578124,-4.8103790283203125,0.05029407516121864,2.9203505516052246
1691674098013467100,9.613467041015625,-5.022441864013672,-0.10928888618946075,2.6965863704681396
1691674098023512000,9.623511962890625,-5.313543796539307,-0.4065735638141632,2.4396133422851562
1691674098033558000,9.63355810546875,-5.6261372566223145,-0.6832365989685059,2.199627637863159
1691674098043603200,9.643603271484375,-5.913516998291016,-0.8290888667106628,2.028743028640747
1691674098053648100,9.653648193359375,-6.108150005340576,-0.8420922756195068,1.932154655456543
1691674098063694300,9.6636943359375,-6.1565117835998535,-0.8001144528388977,1.8621667623519897
1691674098073739000,9.673739013671875,-6.035495758056641,-0.6940242648124695,1.7957763671875
1691674098083784200,9.6837841796875,-5.681707859039307,-0.6715413331985474,1.6445246934890747
1691674098093830100,9.693830078125,-5.174729347229004,-0.9033815860748291,1.412265419960022
1691674098103875000,9.703875,-4.686102390289307,-1.1912648677825928,1.1923238039016724
1691674098113920300,9.713920166015624,-4.247138977050781,-1.4788873195648193,1.0653573274612427
1691674098123966200,9.72396630859375,-3.884181499481201,-1.7540969848632812,1.0007718801498413
1691674098134011400,9.734011474609375,-3.614790678024292,-1.89583158493042,0.9005100131034851
1691674098144057000,9.74405712890625,-3.4036507606506348,-1.799116611480713,0.6676381826400757
1691674098154102000,9.75410205078125,-3.1755340099334717,-1.4901013374328613,0.34422537684440613
1691674098164147200,9.764147216796875,-2.815084457397461,-0.9837130904197693,0.013458633795380592
1691674098174193200,9.774193115234375,-2.3100194931030273,-0.35298237204551697,-0.2518266439437866
1691674098184238000,9.784238037109375,-1.6386091709136963,0.1460183560848236,-0.4092458486557007
1691674098194283300,9.794283203125,-0.8807259798049927,0.4015089273452759,-0.543498158454895
1691674098204329200,9.8043291015625,-0.16440041363239288,0.5074194073677063,-0.6885296702384949
1691674098214374100,9.8143740234375,0.4746452867984772,0.4698089063167572,-0.9057981371879578
1691674098224419000,9.824419189453126,1.0665960311889648,0.2415991872549057,-1.2141528129577637
1691674098234465000,9.834465087890624,1.6969354152679443,-0.12420418113470078,-1.6111348867416382
1691674098244510200,9.84451025390625,2.3880960941314697,-0.4587286412715912,-2.0312836170196533
1691674098254556200,9.85455615234375,3.091848611831665,-0.666826069355011,-2.438828945159912
1691674098264601300,9.864601318359375,3.808791399002075,-0.8182896375656128,-2.8190908432006836
1691674098274646000,9.87464599609375,4.596499443054199,-0.8992279767990112,-3.049147844314575
1691674098284692000,9.88469189453125,5.466118335723877,-0.8456310629844666,-3.0316150188446045
1691674098294737200,9.894737060546875,6.3415021896362305,-0.7217287421226501,-2.772451877593994
1691674098304782000,9.904781982421875,6.975622177124023,-0.5348707437515259,-2.356390953063965
1691674098314828000,9.914828125,7.211690425872803,-0.279580682516098,-1.9414526224136353
1691674098324873200,9.924873291015626,7.011314392089844,0.0609058178961277,-1.7161628007888794
1691674098334918100,9.934918212890626,6.5897722244262695,0.4518125355243683,-1.763944387435913
1691674098344964400,9.94496435546875,6.206478118896484,0.7823736667633057,-2.054537773132324
1691674098355009000,9.955009033203124,5.920339107513428,1.1104720830917358,-2.457176685333252
1691674098365055000,9.965054931640625,5.780319690704346,1.4377702474594116,-2.835449695587158
1691674098375100200,9.97510009765625,5.724656105041504,1.7037543058395386,-3.1166560649871826
1691674098385145000,9.98514501953125,5.6425604820251465,1.9278539419174194,-3.282693862915039
1691674098395191300,9.99519140625,5.535306453704834,2.147496461868286,-3.367757797241211
1691674098405236200,10.005236328125,5.462584972381592,2.304720163345337,-3.3578312397003174
1691674098415281200,10.01528125,5.403233528137207,2.3893895149230957,-3.2756242752075195
1691674098425327000,10.0253271484375,5.265207290649414,2.432715654373169,-3.1549575328826904
1691674098435372000,10.0353720703125,5.055643558502197,2.4494025707244873,-3.056284189224243
1691674098445417200,10.045417236328126,4.827342510223389,2.4378821849823,-2.978957414627075
1691674098455463200,10.055463134765626,4.603116512298584,2.392564296722412,-2.8970136642456055
1691674098465508000,10.065508056640626,4.388881206512451,2.336155652999878,-2.8136911392211914
1691674098475554300,10.07555419921875,4.185811996459961,2.2552995681762695,-2.7492456436157227
1691674098485599000,10.085598876953124,4.010223865509033,2.144339084625244,-2.675601005554199
1691674098495644200,10.09564404296875,3.8508708477020264,2.0490405559539795,-2.5894980430603027
1691674098505690000,10.105690185546875,3.7251484394073486,2.0240795612335205,-2.4915828704833984
1691674098515734800,10.11573486328125,3.634617567062378,2.0152556896209717,-2.371870756149292
1691674098525780000,10.125780029296875,3.5644214153289795,2.00927996635437,-2.246034860610962
1691674098535826000,10.135825927734375,3.4984161853790283,2.0671534538269043,-2.11456561088562
1691674098545871000,10.14587109375,3.4358978271484375,2.1870133876800537,-1.9621891975402832
1691674098555916000,10.155916015625,3.3459599018096924,2.1106584072113037,-1.7320523262023926
1691674098565962000,10.1659619140625,3.197416305541992,1.8472453355789185,-1.3955146074295044
1691674098576007200,10.176007080078126,2.9639370441436768,1.4872413873672485,-0.98073810338974
1691674098586053000,10.18605322265625,2.6335928440093994,1.0934629440307617,-0.5447943806648254
1691674098596098000,10.19609814453125,2.2295761108398438,0.6757910251617432,-0.15813705325126648
1691674098606143000,10.20614306640625,1.7815083265304565,0.1983780860900879,0.1447618305683136
1691674098616189000,10.21618896484375,1.349707007408142,-0.2613004148006439,0.35254186391830444
1691674098626234000,10.226234130859375,0.9177910685539246,-0.6779535412788391,0.4660452604293823
1691674098636279000,10.236279052734375,0.49343764781951904,-1.0612006187438965,0.48207101225852966
1691674098646325000,10.246324951171875,0.14892926812171936,-1.3222947120666504,0.41695645451545715
1691674098656370000,10.256369873046875,-0.05702422559261322,-1.408302903175354,0.25717097520828247
1691674098666415900,10.266415771484375,-0.08570114523172379,-1.4047520160675049,0.01719195954501629
1691674098676461000,10.2764609375,0.058362044394016266,-1.3647918701171875,-0.19197769463062286
1691674098686506000,10.286506103515626,0.24312816560268402,-1.2483558654785156,-0.27573439478874207
1691674098696552000,10.296552001953126,0.3693041503429413,-1.0704779624938965,-0.22489675879478455
1691674098706597000,10.30659716796875,0.29600009322166443,-0.7957163453102112,-0.10794775933027267
1691674098716642000,10.31664208984375,-0.16511043906211853,-0.4104379713535309,-0.04612180218100548
1691674098726688000,10.32668798828125,-1.0584685802459717,0.045865654945373535,-0.07002260535955429
1691674098736733000,10.33673291015625,-2.2407219409942627,0.626753568649292,-0.14680115878582
1691674098746778000,10.346778076171875,-3.5088136196136475,1.29473876953125,-0.21246671676635742
1691674098756824000,10.356823974609375,-4.616898536682129,1.9944480657577515,-0.19755969941616058
1691674098766869000,10.366868896484375,-5.423593521118164,2.5916640758514404,-0.09094884246587753
1691674098776915200,10.376915283203125,-5.901422500610352,3.099472999572754,0.09586682915687561
1691674098786960100,10.386960205078125,-6.043826103210449,3.447165012359619,0.3604755699634552
1691674098797005000,10.397005126953125,-5.798582553863525,3.555659294128418,0.7263838052749634
1691674098807051000,10.407051025390626,-5.330545425415039,3.423889636993408,1.2195671796798706
1691674098817096000,10.417095947265626,-4.8636651039123535,3.0230417251586914,1.8500287532806396
1691674098827141000,10.42714111328125,-4.535394191741943,2.394275426864624,2.5927958488464355
1691674098837187000,10.43718701171875,-4.453976154327393,1.633150577545166,3.4451982975006104
1691674098847232000,10.44723193359375,-4.668837547302246,0.8065000176429749,4.3834638595581055
1691674098857277000,10.45727685546875,-5.076438903808594,-0.0005757920444011688,5.335547924041748
1691674098867323000,10.467322998046875,-5.478000640869141,-0.7012071013450623,6.15093994140625
1691674098877368000,10.4773681640625,-5.7583465576171875,-1.2693222761154175,6.686187267303467
1691674098887414000,10.4874140625,-5.898478984832764,-1.688154935836792,6.790730953216553
1691674098897459000,10.497458984375,-5.893687725067139,-1.9948346614837646,6.43515157699585
1691674098907504000,10.507504150390625,-5.7589430809021,-2.193120002746582,5.797140598297119
1691674098917550000,10.517550048828125,-5.619638919830322,-2.2189748287200928,5.048671245574951
1691674098927595300,10.52759521484375,-5.585659980773926,-2.1222665309906006,4.315284729003906
1691674098937640000,10.537639892578126,-5.682591915130615,-2.102313995361328,3.7039291858673096
1691674098947686000,10.547685791015626,-5.907232761383057,-2.1029515266418457,3.2729618549346924
1691674098957731000,10.55773095703125,-6.159985065460205,-2.0882198810577393,3.0107836723327637
1691674098967777000,10.567777099609375,-6.3480544090271,-2.083320379257202,2.8492302894592285
1691674098977822000,10.577822021484375,-6.453932285308838,-1.9876494407653809,2.7433218955993652
1691674098987867100,10.5878671875,-6.425313472747803,-1.7758989334106445,2.6552023887634277
1691674098997913000,10.5979130859375,-6.164268493652344,-1.6317267417907715,2.4845352172851562
1691674099007958000,10.6079580078125,-5.774979591369629,-1.4623968601226807,2.1413872241973877
1691674099018003000,10.6180029296875,-5.308276176452637,-1.215896725654602,1.6539386510849
1691674099028049000,10.628048828125,-4.7444868087768555,-0.863766610622406,1.1204286813735962
1691674099038094000,10.638093994140625,-4.201905727386475,-0.4685993790626526,0.5754338502883911
1691674099048139000,10.648138916015625,-3.6776041984558105,-0.15385393798351288,0.042661793529987335
1691674099058185200,10.658185302734376,-3.10164737701416,0.012829577550292015,-0.4846928119659424
1691674099068230000,10.66822998046875,-2.487323760986328,0.06479024887084961,-0.9684834480285645
1691674099078275000,10.678275146484374,-1.821969985961914,0.03273889422416687,-1.3603394031524658
1691674099088321000,10.688321044921874,-1.1134662628173828,-0.06367020308971405,-1.626404881477356
1691674099098366000,10.698365966796874,-0.3767969310283661,-0.2035781741142273,-1.7489511966705322
1691674099108412000,10.708411865234375,0.41379863023757935,-0.38704973459243774,-1.792280673980713
1691674099118457000,10.71845703125,1.259619951248169,-0.5999165177345276,-1.7873175144195557
1691674099128502000,10.728501953125,2.183579921722412,-0.827619731426239,-1.7570744752883911
1691674099138548200,10.73854833984375,3.189357280731201,-1.091049313545227,-1.7529795169830322
1691674099148593000,10.748593017578125,4.21150541305542,-1.3532161712646484,-1.8130258321762085
1691674099158638000,10.75863818359375,5.133946418762207,-1.449127197265625,-1.9442886114120483
1691674099168684000,10.76868408203125,5.914320945739746,-1.3412648439407349,-2.1042749881744385
1691674099178729000,10.77872900390625,6.50362491607666,-1.043778657913208,-2.2795021533966064
1691674099188775200,10.788775146484374,6.839731693267822,-0.6023609638214111,-2.4585893154144287
1691674099198820000,10.798820068359374,6.937840938568115,-0.11547566205263138,-2.6713225841522217
1691674099208865000,10.808864990234374,6.89155387878418,0.26693668961524963,-2.9723598957061768
1691674099218911000,10.818910888671875,6.745238780975342,0.5614836812019348,-3.3685262203216553
1691674099228956000,10.828955810546875,6.5701141357421875,0.8388665318489075,-3.8736021518707275
1691674099239001000,10.8390009765625,6.419872760772705,1.1462398767471313,-4.456058979034424
1691674099249047000,10.849047119140625,6.336874485015869,1.4954016208648682,-5.087067604064941
1691674099259092000,10.859092041015625,6.363724231719971,1.8717858791351318,-5.7395710945129395
1691674099269137200,10.86913720703125,6.469475746154785,2.2207748889923096,-6.377383232116699
1691674099279182800,10.879182861328125,6.579802513122559,2.544206142425537,-6.969751834869385
1691674099289228000,10.88922802734375,6.67950963973999,2.834662914276123,-7.495563983917236
1691674099299274000,10.89927392578125,6.725453853607178,3.065817356109619,-7.959676742553711
1691674099309319000,10.90931884765625,6.689291477203369,3.235300302505493,-8.361974716186523
1691674099319364000,10.919364013671874,6.55927038192749,3.3246374130249023,-8.706835746765137
1691674099329410000,10.92941015625,6.349419116973877,3.364142417907715,-8.96241283416748
1691674099339455200,10.939455322265625,6.03217077255249,3.38407039642334,-9.131159782409668
1691674099349500000,10.9495,5.610151290893555,3.444643974304199,-9.194541931152344
1691674099359545900,10.9595458984375,5.1133527755737305,3.5486814975738525,-9.134721755981445
1691674099369591000,10.969591064453125,4.586206436157227,3.6788599491119385,-8.93277359008789
1691674099379637000,10.979636962890625,4.112485408782959,3.8806071281433105,-8.596590995788574
1691674099389682200,10.98968212890625,3.6991024017333984,3.9927000999450684,-8.123178482055664
1691674099399727000,10.99972705078125,3.286492347717285,4.015363693237305,-7.48615026473999
1691674099409773000,11.00977294921875,2.878535270690918,3.937032699584961,-6.709644317626953
1691674099419818000,11.01981787109375,2.4927785396575928,3.734111785888672,-5.857590198516846
1691674099429863000,11.02986279296875,2.147277593612671,3.435107707977295,-5.02743673324585
1691674099439908900,11.039908935546874,1.8417514562606812,3.0789754390716553,-4.32767915725708
1691674099449954000,11.0499541015625,1.5601500272750854,2.669257164001465,-3.7589128017425537
1691674099459999000,11.0599990234375,1.3021948337554932,2.224391460418701,-3.2838354110717773
1691674099470045200,11.070045166015625,1.0901848077774048,1.7885713577270508,-2.8732597827911377
1691674099480090000,11.080090087890625,0.9264170527458191,1.3138601779937744,-2.5852291584014893
1691674099490135000,11.090135009765625,0.7932978868484497,0.7959784269332886,-2.4113597869873047
1691674099500181000,11.100180908203125,0.6893036961555481,0.2713620066642761,-2.265383243560791
1691674099510226000,11.110225830078125,0.6125495433807373,-0.20091551542282104,-2.1110990047454834
1691674099520272100,11.120272216796875,0.5524624586105347,-0.6277051568031311,-1.9397249221801758
1691674099530317000,11.130317138671876,0.4957437813282013,-1.0008819103240967,-1.7688959836959839
1691674099540362000,11.140362060546876,0.3883833587169647,-1.2906172275543213,-1.6076991558074951
1691674099550408000,11.150407958984376,0.1859777867794037,-1.4184467792510986,-1.490913987159729
1691674099560452900,11.160452880859374,0.05347950756549835,-1.409666657447815,-1.4423826932907104
1691674099570498000,11.170498046875,0.12938599288463593,-1.4009760618209839,-1.3960825204849243
1691674099580544000,11.1805439453125,0.2794566750526428,-1.3766310214996338,-1.2869504690170288
1691674099590589000,11.1905888671875,0.4570958912372589,-1.223211646080017,-1.1629369258880615
1691674099600634000,11.200634033203125,0.6518772840499878,-0.972435474395752,-1.0805193185806274
1691674099610679800,11.2106796875,0.8125599026679993,-0.6732882261276245,-1.02357816696167
1691674099620725000,11.22072509765625,0.8853511810302734,-0.2965991199016571,-0.9615693688392639
1691674099630771000,11.23077099609375,0.832261860370636,0.16433760523796082,-0.9036336541175842
1691674099640815900,11.24081591796875,0.668491005897522,0.6867877840995789,-0.8583656549453735
1691674099650861000,11.250861083984375,0.4460448622703552,1.2277621030807495,-0.8070423007011414
1691674099660907000,11.260906982421876,0.24549095332622528,1.7582424879074097,-0.7455716729164124
1691674099670952200,11.2709521484375,0.12903518974781036,2.227940797805786,-0.6756232380867004
1691674099680996900,11.280996826171876,0.121808260679245,2.620288133621216,-0.5741369128227234
1691674099691042800,11.291042724609374,0.16812515258789062,2.9425485134124756,-0.4356303811073303
1691674099701088000,11.301087890625,0.2342461347579956,3.232144832611084,-0.23451802134513855
1691674099711134000,11.311134033203125,0.31024369597435,3.484502077102661,0.021273275837302208
1691674099721179100,11.32117919921875,0.3621290326118469,3.7357709407806396,0.2763987183570862
1691674099731224000,11.33122412109375,0.37438541650772095,4.022164821624756,0.5012601017951965
1691674099741270000,11.34127001953125,0.34922948479652405,4.29249382019043,0.6886255145072937
1691674099751315000,11.35131494140625,0.3163386583328247,4.480362415313721,0.8461877107620239
1691674099761360000,11.36135986328125,0.3557668626308441,4.5371809005737305,0.9965476393699646
1691674099771405800,11.37140576171875,0.44976499676704407,4.437223434448242,1.1280686855316162
1691674099781451000,11.381450927734376,0.6294780969619751,4.257552623748779,1.2584846019744873
1691674099791496000,11.391495849609376,0.8913694024085999,4.008530139923096,1.4032974243164062
1691674099801542100,11.401542236328124,1.1208261251449585,3.657365322113037,1.5528066158294678
1691674099811587000,11.411587158203124,1.1794601678848267,3.2207846641540527,1.7050155401229858
1691674099821633000,11.421633056640625,1.0675581693649292,2.734776020050049,1.836190938949585
1691674099831678000,11.431677978515625,0.8338484764099121,2.2025415897369385,1.9768702983856201
1691674099841723000,11.441722900390625,0.5570904612541199,1.6082130670547485,2.188354015350342
1691674099851769000,11.45176904296875,0.3072103261947632,0.9961802363395691,2.5273311138153076
1691674099861814000,11.46181396484375,0.1368456780910492,0.47142040729522705,3.0284032821655273
1691674099871859200,11.471859130859375,0.01380151230841875,0.08066785335540771,3.659391164779663
1691674099881905200,11.4819052734375,-0.1135871410369873,-0.16943274438381195,4.287306308746338
1691674099891949800,11.49194970703125,-0.28808891773223877,-0.34985047578811646,4.697165489196777
1691674099901995000,11.5019951171875,-0.46028223633766174,-0.6072699427604675,4.760798454284668
1691674099912041000,11.512041015625,-0.5603010058403015,-0.8931334018707275,4.411678791046143
1691674099922086000,11.5220859375,-0.5408374071121216,-1.106153130531311,3.7058229446411133
1691674099932132000,11.532132080078124,-0.44112521409988403,-1.2594401836395264,2.8305916786193848
1691674099942177000,11.542177001953124,-0.3319954574108124,-1.5123380422592163,2.177961587905884
1691674099952222000,11.552221923828125,-0.24683129787445068,-1.9512953758239746,2.133981466293335
1691674099962268000,11.562267822265625,-0.24955067038536072,-2.5416717529296875,2.7524187564849854
1691674099972312800,11.572312744140625,-0.2853400707244873,-3.209296941757202,3.901622772216797
1691674099982358000,11.58235791015625,-0.4066563546657562,-3.7469475269317627,5.322904109954834
1691674099992404000,11.592404052734375,-0.6272286772727966,-4.0266337394714355,6.481639862060547
1691674100002449200,11.60244921875,-0.9668256640434265,-4.059206008911133,7.003639221191406
1691674100012495000,11.6124951171875,-1.4374563694000244,-3.8482279777526855,6.852790832519531
1691674100022540000,11.6225400390625,-1.8772095441818237,-3.5226571559906006,6.056612968444824
1691674100032585000,11.6325849609375,-2.1716341972351074,-3.2164692878723145,4.865926742553711
1691674100042631000,11.642630859375,-2.2896151542663574,-2.882916212081909,3.647904396057129
1691674100052675800,11.65267578125,-2.3140857219696045,-2.531526565551758,2.662416934967041
1691674100062721000,11.662720947265624,-2.359290838241577,-2.1947004795074463,1.9377765655517578
1691674100072767000,11.67276708984375,-2.4419498443603516,-1.87074875831604,1.415928840637207
1691674100082812200,11.682812255859375,-2.4094927310943604,-1.5790576934814453,1.057174563407898
1691674100092858000,11.692858154296875,-2.2200565338134766,-1.2911297082901,0.8903286457061768
1691674100102902800,11.70290283203125,-1.882957100868225,-1.0043437480926514,0.9286433458328247
1691674100112948000,11.712947998046875,-1.4695085287094116,-0.7509738802909851,1.0773265361785889
1691674100122994000,11.722993896484375,-1.0345613956451416,-0.5606826543807983,1.2254483699798584
1691674100133039000,11.7330390625,-0.5997702479362488,-0.3941192328929901,1.3074252605438232
1691674100143084000,11.743083984375,-0.1422857791185379,-0.29093584418296814,1.2922289371490479
1691674100153130000,11.7531298828125,0.2996673882007599,-0.21812474727630615,1.132533311843872
1691674100163175000,11.7631748046875,0.6938276886940002,-0.1639339029788971,0.8334967494010925
1691674100173219800,11.7732197265625,1.0280264616012573,-0.10323832929134369,0.42391058802604675
1691674100183266000,11.78326611328125,1.3123972415924072,-0.032549913972616196,-0.04057784005999565
1691674100193311000,11.79331103515625,1.557603359222412,0.04210222139954567,-0.4705611765384674
1691674100203356000,11.80335595703125,1.7461451292037964,0.15810616314411163,-0.807880163192749
1691674100213402000,11.813402099609375,1.8541896343231201,0.29560115933418274,-1.0418593883514404
1691674100223447000,11.823447021484375,1.8833907842636108,0.41524434089660645,-1.15486741065979
1691674100233493000,11.833492919921875,1.8526331186294556,0.4990673363208771,-1.1853199005126953
1691674100243538000,11.843537841796875,1.757652759552002,0.5602977275848389,-1.165703296661377
1691674100253582800,11.853582763671875,1.6137017011642456,0.5741498470306396,-1.1480218172073364
1691674100263629000,11.863629150390626,1.447210431098938,0.5335279107093811,-1.16289222240448
1691674100273674000,11.873674072265626,1.2928205728530884,0.46875235438346863,-1.2264410257339478
1691674100283719200,11.88371923828125,1.152838110923767,0.4192262887954712,-1.3491060733795166
1691674100293765000,11.89376513671875,1.0294725894927979,0.38317054510116577,-1.5452313423156738
1691674100303809800,11.903809814453124,0.9146476984024048,0.3874136507511139,-1.8184741735458374
1691674100313856000,11.91385595703125,0.8022894263267517,0.43373242020606995,-2.160456657409668
1691674100323901000,11.92390087890625,0.7399230599403381,0.533284068107605,-2.5509629249572754
1691674100333946000,11.933946044921875,0.7868484854698181,0.6654181480407715,-2.969632863998413
1691674100343992000,11.943991943359375,0.9283961653709412,0.812171995639801,-3.389669418334961
1691674100354037000,11.954037109375,1.1292363405227661,0.9975062012672424,-3.7939624786376953
1691674100364082200,11.964082275390625,1.3657641410827637,1.159635066986084,-4.172887802124023
1691674100374127900,11.9741279296875,1.6069027185440063,1.2955012321472168,-4.487046241760254
1691674100384172800,11.9841728515625,1.8446727991104126,1.395686149597168,-4.72157096862793
1691674100394218000,11.994218017578126,2.062670946121216,1.5039668083190918,-4.849917888641357
1691674100404264000,12.004263916015624,2.285909414291382,1.6735527515411377,-4.928469657897949
1691674100414309000,12.01430908203125,2.499384641647339,1.878784418106079,-5.00138521194458
1691674100424355000,12.02435498046875,2.654454231262207,2.1103274822235107,-5.061135768890381
1691674100434400000,12.03439990234375,2.7528274059295654,2.3066089153289795,-5.119341850280762
1691674100444445000,12.04444482421875,2.7984890937805176,2.4596078395843506,-5.1865458488464355
1691674100454491000,12.054490966796875,2.814621686935425,2.494786024093628,-5.253178119659424
1691674100464536000,12.0645361328125,2.794041395187378,2.4193551540374756,-5.294683456420898
1691674100474581000,12.0745810546875,2.736968517303467,2.305421829223633,-5.282983779907227
1691674100484627000,12.084626953125,2.6764822006225586,2.167497396469116,-5.212467670440674
1691674100494672000,12.094671875,2.679536819458008,2.0387210845947266,-5.0826416015625
1691674100504716800,12.104716796875,2.7963650226593018,1.8873610496520996,-4.8685808181762695
1691674100514762800,12.1147626953125,3.000422954559326,1.716606855392456,-4.530939102172852
1691674100524808000,12.124807861328126,3.22761869430542,1.5055758953094482,-4.05894660949707
1691674100534854000,12.13485400390625,3.4432332515716553,1.266284465789795,-3.4869277477264404
1691674100544899000,12.144899169921874,3.5959527492523193,0.9823638796806335,-2.850001811981201
1691674100554943700,12.15494384765625,3.6533031463623047,0.6861993074417114,-2.157688856124878
1691674100564989700,12.16498974609375,3.6292357444763184,0.3613831400871277,-1.4565143585205078
1691674100575035000,12.175034912109375,3.5056540966033936,0.08920371532440186,-0.8051536679267883
1691674100585079800,12.185079833984375,3.27358341217041,-0.11016406863927841,-0.2318490594625473
1691674100595126000,12.1951259765625,2.950174331665039,-0.24134260416030884,0.2743059992790222
1691674100605171000,12.2051708984375,2.6086878776550293,-0.29610538482666016,0.6926383376121521
1691674100615216000,12.215216064453125,2.2773704528808594,-0.28159406781196594,0.9957982301712036
1691674100625261800,12.22526171875,1.9561175107955933,-0.20976874232292175,1.1946593523025513
1691674100635306800,12.235306640625,1.6440634727478027,-0.09985369443893433,1.2944954633712769
1691674100645353000,12.24535302734375,1.3606187105178833,0.05743977800011635,1.300217866897583
1691674100655398000,12.25539794921875,1.1071653366088867,0.211526021361351,1.2353990077972412
1691674100665442800,12.26544287109375,0.8338953256607056,0.3328191339969635,1.1408231258392334
1691674100675489000,12.275489013671875,0.5450060367584229,0.43318381905555725,1.048571228981018
1691674100685534000,12.285533935546875,0.2907164394855499,0.5442445874214172,0.9928193092346191
1691674100695579000,12.295578857421875,0.12686787545681,0.6609141826629639,0.9323663711547852
1691674100705624800,12.305624755859375,0.048038143664598465,0.7784071564674377,0.7963515520095825
1691674100715669800,12.315669677734375,0.05462360754609108,0.9064260721206665,0.5820847749710083
1691674100725716000,12.325716064453125,0.1664116382598877,1.1177144050598145,0.308576375246048
1691674100735761000,12.335760986328125,0.3481270968914032,1.4029003381729126,-0.027086840942502022
1691674100745806000,12.34580615234375,0.5545763373374939,1.655745029449463,-0.37203681468963623
1691674100755852000,12.35585205078125,0.6878049373626709,1.8676297664642334,-0.6833480596542358
1691674100765896700,12.365896728515626,0.7048759460449219,2.040264368057251,-0.9452752470970154
1691674100775942000,12.37594189453125,0.6222745180130005,2.1937897205352783,-1.1120473146438599
1691674100785987800,12.38598779296875,0.4361807107925415,2.306326389312744,-1.162621021270752
1691674100796033000,12.396032958984375,0.19613270461559296,2.3483357429504395,-1.1010441780090332
1691674100806078000,12.406077880859375,-0.041333917528390884,2.3531949520111084,-0.9775499701499939
1691674100816124000,12.4161240234375,-0.21522875130176544,2.3542110919952393,-0.8701965808868408
1691674100826169000,12.426169189453125,-0.3098598122596741,2.360119581222534,-0.8592785596847534
1691674100836215000,12.436215087890625,-0.3479089140892029,2.315955400466919,-0.9584163427352905
1691674100846259700,12.446259765625,-0.32290413975715637,2.243513584136963,-1.096582293510437
1691674100856305000,12.456304931640625,-0.24035173654556274,2.142963409423828,-1.2051045894622803
1691674100866350800,12.466350830078126,-0.14367830753326416,2.006765127182007,-1.183689832687378
1691674100876396000,12.47639599609375,-0.031407155096530914,1.873282551765442,-1.0200668573379517
1691674100886441000,12.48644091796875,0.08818338811397552,1.7487800121307373,-0.8046663403511047
1691674100896487000,12.49648681640625,0.14806297421455383,1.6029096841812134,-0.6114678382873535
1691674100906531800,12.50653173828125,0.15409395098686218,1.4487439393997192,-0.4623921513557434
1691674100916577800,12.516577880859375,0.1075967475771904,1.3135621547698975,-0.35931316018104553
1691674100926623000,12.526623046875,0.05742871016263962,1.1710314750671387,-0.28962063789367676
1691674100936668000,12.53666796875,0.022757813334465027,1.0463489294052124,-0.2145003229379654
1691674100946713900,12.5467138671875,0.012200118973851204,0.9854627251625061,-0.11994698643684387
1691674100956759000,12.556759033203125,-0.0005391117883846164,0.9004905819892883,-0.019129827618598938
1691674100966803700,12.5668037109375,-0.02951768971979618,0.7732833027839661,0.07630360126495361
1691674100976850000,12.576849853515625,-0.0832245945930481,0.6293676495552063,0.16870810091495514
1691674100986894800,12.586894775390626,-0.1597333699464798,0.44624724984169006,0.26042020320892334
1691674100996939800,12.596939697265626,-0.2584964334964752,0.24495597183704376,0.36187463998794556
1691674101006986000,12.606986083984374,-0.38817405700683594,0.09211880713701248,0.47572988271713257
1691674101017031000,12.617031005859374,-0.5377308130264282,-0.019174160435795784,0.6068474054336548
1691674101027076900,12.627076904296874,-0.6655322909355164,-0.11907315999269485,0.741243839263916
1691674101037122000,12.6371220703125,-0.7280763983726501,-0.18043000996112823,0.8641178011894226
1691674101047166700,12.647166748046875,-0.7212845087051392,-0.23639214038848877,0.9150816798210144
1691674101057213000,12.657212890625,-0.6817746162414551,-0.2981889247894287,0.8651689887046814
1691674101067257900,12.6672578125,-0.5896315574645996,-0.33622023463249207,0.7193760275840759
1691674101077303000,12.677302978515625,-0.460223525762558,-0.34822097420692444,0.49283531308174133
1691674101087349000,12.687348876953125,-0.3345082998275757,-0.338001012802124,0.24740013480186462
1691674101097394000,12.697393798828125,-0.253827840089798,-0.30521002411842346,0.039422694593667984
1691674101107439900,12.70743994140625,-0.2378428876399994,-0.2666369676589966,-0.08922683447599411
1691674101117484800,12.71748486328125,-0.2816183269023895,-0.2356249839067459,-0.1272841989994049
