time,seconds_elapsed,z,y,x
1691674007031772000,0.02977197265625,0.06502778828144073,-0.20758357644081116,0.1458338499069214
1691674007041816800,0.03981689453125,0.08464879542589188,0.07422071695327759,0.23447276651859283
1691674007051861800,0.04986181640625,0.09156209975481033,0.339703232049942,0.34424880146980286
1691674007061906700,0.05990673828125,0.12911437451839447,0.5270420908927917,0.43241673707962036
1691674007071952000,0.069951904296875,0.297614723443985,0.7044602632522583,0.5034626722335815
1691674007081997800,0.079997802734375,0.5609385371208191,0.9172391891479492,0.5995008945465088
1691674007092043000,0.09004296875,0.8162376880645752,0.7681306600570679,0.6706528663635254
1691674007102088000,0.100087890625,1.1011520624160767,0.3976772129535675,0.6218342185020447
1691674007112132900,0.1101328125,1.233213186264038,0.15335401892662048,0.5105846524238586
1691674007122177800,0.120177734375,1.2547132968902588,0.024177081882953644,0.4260830581188202
1691674007132223000,0.130222900390625,1.2081191539764404,0.0011420715600252151,0.3698892891407013
1691674007142269000,0.14026904296875,1.0515978336334229,0.15401236712932587,0.31283238530158997
1691674007152313900,0.15031396484375,0.8613237142562866,0.4485428035259247,0.20015963912010193
1691674007162358800,0.16035888671875,0.7485356330871582,0.5529503226280212,0.016779595986008644
1691674007172403700,0.17040380859375,0.6844874024391174,0.48236164450645447,-0.15764173865318298
1691674007182449000,0.180448974609375,0.6547856330871582,0.43433117866516113,-0.33616623282432556
1691674007192494800,0.190494873046875,0.6840263605117798,0.4621819853782654,-0.5460720658302307
1691674007202540000,0.2005400390625,0.8065881729125977,0.3168301284313202,-0.636946976184845
1691674007212585000,0.2105849609375,0.995754599571228,-0.0020333402790129185,-0.6000939011573792
1691674007222630000,0.2206298828125,1.1527286767959595,-0.37301406264305115,-0.461741179227829
1691674007232674800,0.2306748046875,0.9529435038566589,-0.9788768291473389,-0.27370762825012207
1691674007242720800,0.240720703125,0.587851881980896,-1.0600889921188354,-0.1686956286430359
1691674007252766000,0.250765869140625,0.6692197322845459,-1.3260256052017212,-0.24602770805358887
1691674007262811000,0.260810791015625,1.0126826763153076,-1.0580317974090576,-0.5099456310272217
1691674007272855800,0.270855712890625,1.3115918636322021,-0.5292896628379822,-0.8281164169311523
1691674007282900700,0.280900634765625,1.47981595993042,-0.09118139743804932,-1.0424365997314453
1691674007292946000,0.29094580078125,1.6311509609222412,0.391733855009079,-1.1193166971206665
1691674007302992000,0.300991943359375,1.7681348323822021,0.755601704120636,-1.0159295797348022
1691674007313036800,0.311036865234375,1.6268130540847778,1.06282377243042,-0.6045576930046082
1691674007323082000,0.32108203125,1.3238798379898071,1.0588735342025757,-0.08172141015529633
1691674007333126700,0.331126708984375,1.1307053565979004,0.6925497651100159,0.39712026715278625
1691674007343171800,0.341171875,0.9312499761581421,0.6146476864814758,0.8197559118270874
1691674007353216800,0.351216796875,0.6686474084854126,1.019153118133545,1.1862797737121582
1691674007363263000,0.361262939453125,0.5939523577690125,1.2925796508789062,1.363951563835144
1691674007373308000,0.371307861328125,0.8004778623580933,1.2192147970199585,1.2789745330810547
1691674007383352800,0.381352783203125,1.011393666267395,1.1105070114135742,1.1146032810211182
1691674007393397800,0.391397705078125,0.9678093791007996,0.559967041015625,0.8682187795639038
1691674007403443000,0.40144287109375,0.6852935552597046,0.746009111404419,0.8048945665359497
1691674007413489000,0.411489013671875,0.43669015169143677,0.8353371620178223,0.6856390237808228
1691674007423533800,0.421533935546875,-0.019878104329109192,1.063027024269104,0.3854535222053528
1691674007433578800,0.431578857421875,-0.7587162256240845,1.8242090940475464,0.028663165867328644
1691674007443623700,0.441623779296875,-0.8809828758239746,2.554495096206665,-0.16435880959033966
1691674007453668900,0.4516689453125,-0.692962110042572,2.8886184692382812,-0.22184260189533234
1691674007463713800,0.4617138671875,-0.44205594062805176,2.581352710723877,-0.10797475278377533
1691674007473760000,0.471760009765625,-0.3152807056903839,2.254157304763794,0.2512688934803009
1691674007483805000,0.481804931640625,-0.2039281576871872,1.7714215517044067,0.607142984867096
1691674007493849900,0.491849853515625,-0.18802189826965332,1.3582442998886108,0.8702845573425293
1691674007503894800,0.501894775390625,-0.3210202753543854,0.9747064113616943,1.00754714012146
1691674007513940000,0.51193994140625,-0.544335663318634,0.5450285077095032,0.9574381709098816
1691674007523986000,0.52198583984375,-0.7434395551681519,0.3160799443721771,0.7707384824752808
1691674007534030800,0.53203076171875,-0.8461195826530457,0.3570542633533478,0.4710899591445923
1691674007544075800,0.54207568359375,-0.9037917256355286,0.7317507863044739,0.15061406791210175
1691674007554120700,0.55212060546875,-0.9295958876609802,1.3105741739273071,-0.06056981533765793
1691674007564166000,0.562165771484375,-0.7899377346038818,1.9296042919158936,-0.08942171186208725
1691674007574211800,0.5722119140625,-0.5827693343162537,2.461869478225708,0.07869565486907959
1691674007584256800,0.5822568359375,-0.500933825969696,2.8369717597961426,0.40486404299736023
1691674007594302000,0.592302001953125,-0.7113616466522217,3.16776704788208,0.8518843650817871
1691674007604347000,0.602346923828125,-1.0853395462036133,3.5221099853515625,1.3900978565216064
1691674007614391800,0.612391845703125,-1.3284912109375,3.8771774768829346,1.9696043729782104
1691674007624436700,0.622436767578125,-1.4903984069824219,4.301443576812744,2.541820764541626
1691674007634483000,0.63248291015625,-1.5775634050369263,4.644535541534424,3.077251434326172
1691674007644527900,0.64252783203125,-1.6193510293960571,4.881163120269775,3.540966272354126
1691674007654572800,0.65257275390625,-1.7297744750976562,4.917747497558594,3.88008451461792
1691674007664617700,0.66261767578125,-1.9877992868423462,4.4097394943237305,4.185978412628174
1691674007674663000,0.672662841796875,-2.210343360900879,4.270700931549072,4.087020397186279
1691674007684708900,0.682708984375,-2.3691859245300293,4.323868274688721,3.4877798557281494
1691674007694753800,0.69275390625,-2.566192150115967,4.171592712402344,2.7981998920440674
1691674007704799000,0.702799072265625,-2.872802972793579,3.9076054096221924,2.328165292739868
1691674007714843600,0.71284375,-3.2265055179595947,3.765428304672241,2.0959794521331787
1691674007724888800,0.722888916015625,-3.5886759757995605,3.5579004287719727,2.040661334991455
1691674007734934800,0.732934814453125,-3.940213441848755,3.283231496810913,1.9527788162231445
1691674007744980000,0.74297998046875,-4.173178195953369,2.909759521484375,1.683478832244873
1691674007755025000,0.75302490234375,-4.304183006286621,2.571582317352295,1.2790594100952148
1691674007765069800,0.76306982421875,-4.478449821472168,2.396716594696045,0.8317918181419373
1691674007775114800,0.77311474609375,-4.635128498077393,2.293139696121216,0.4392818212509155
1691674007785160000,0.783159912109375,-4.760087013244629,2.248034954071045,0.21079912781715393
1691674007795206000,0.793205810546875,-4.853003978729248,2.2871224880218506,0.19115671515464783
1691674007805250800,0.803250732421875,-4.888968467712402,2.4265573024749756,0.3808693587779999
1691674007815296000,0.8132958984375,-4.957301139831543,2.561924934387207,0.7009168863296509
1691674007825340700,0.823340576171875,-5.119009971618652,2.6431612968444824,0.9947331547737122
1691674007835385900,0.8333857421875,-5.287303924560547,2.6574153900146484,1.1033909320831299
1691674007845431800,0.843431884765625,-5.505646228790283,2.5878660678863525,1.0040357112884521
1691674007855476700,0.853476806640625,-5.826374530792236,2.424797534942627,0.7080754637718201
1691674007865522000,0.86352197265625,-6.123843669891357,2.235694169998169,0.3059719502925873
1691674007875566800,0.87356689453125,-6.340175628662109,2.023627519607544,-0.06934573501348495
1691674007885611800,0.88361181640625,-6.504491329193115,1.7787158489227295,-0.350468248128891
1691674007895656700,0.89365673828125,-6.594554424285889,1.5866897106170654,-0.47963234782218933
1691674007905703000,0.903702880859375,-6.561842441558838,1.517818570137024,-0.44829174876213074
1691674007915747800,0.913747802734375,-6.442871570587158,1.5273034572601318,-0.30601635575294495
1691674007925793000,0.92379296875,-6.2882490158081055,1.5588669776916504,-0.08777774125337601
1691674007935837700,0.933837646484375,-6.141382217407227,1.589529037475586,0.17887206375598907
1691674007945883000,0.9438828125,-6.042189598083496,1.623519778251648,0.4658159911632538
1691674007955928800,0.9539287109375,-5.98007345199585,1.5772444009780884,0.7222634553909302
1691674007965973800,0.963973876953125,-5.919427394866943,1.3295897245407104,0.9314042925834656
1691674007976019000,0.97401904296875,-5.787527561187744,0.9693791270256042,1.068712830543518
1691674007986063600,0.984063720703125,-5.511646270751953,0.5584293603897095,1.1593031883239746
1691674007996108800,0.99410888671875,-5.0945634841918945,0.17639823257923126,1.215110421180725
1691674008006153700,1.00415380859375,-4.572707653045654,-0.18729650974273682,1.2568995952606201
1691674008016200000,1.014199951171875,-3.9685661792755127,-0.47621431946754456,1.2925039529800415
1691674008026244900,1.024244873046875,-3.309274435043335,-0.6883012056350708,1.2769056558609009
1691674008036290000,1.0342900390625,-2.5816338062286377,-0.8601190447807312,1.2011933326721191
1691674008046334700,1.044334716796875,-1.8854366540908813,-0.9836142063140869,1.081824541091919
1691674008056380000,1.0543798828125,-1.3206089735031128,-1.1073616743087769,0.9494361281394958
1691674008066425900,1.06442578125,-0.9215948581695557,-1.2597402334213257,0.8217487931251526
1691674008076470800,1.074470703125,-0.6354342103004456,-1.4480478763580322,0.6885691285133362
1691674008086516000,1.084515869140625,-0.4405873715877533,-1.6533397436141968,0.5603467226028442
1691674008096560600,1.094560546875,-0.2795633375644684,-1.8291536569595337,0.4271990656852722
1691674008106605800,1.104605712890625,-0.09245627373456955,-1.972170352935791,0.30350399017333984
1691674008116651800,1.11465185546875,0.13818253576755524,-2.0912129878997803,0.20817029476165771
1691674008126696700,1.12469677734375,0.3818988502025604,-2.2357633113861084,0.12691831588745117
1691674008136742000,1.134741943359375,0.5929839015007019,-2.3629255294799805,0.05110345408320427
1691674008146786800,1.144786865234375,0.7109013795852661,-2.4143576622009277,-0.0812331885099411
1691674008156831700,1.154831787109375,0.7053441405296326,-2.4360532760620117,-0.2742689251899719
1691674008166876700,1.164876708984375,0.5491946935653687,-2.4761359691619873,-0.5106130242347717
1691674008176923000,1.1749228515625,0.3027092516422272,-2.55068302154541,-0.7707708477973938
1691674008186967800,1.1849677734375,0.03311493247747421,-2.674245834350586,-1.041874885559082
1691674008197013000,1.195012939453125,-0.19268465042114258,-2.84061861038208,-1.303088665008545
1691674008207057700,1.2050576171875,-0.3435494303703308,-2.959547281265259,-1.535147786140442
1691674008217102800,1.215102783203125,-0.4266219437122345,-2.917099714279175,-1.6913173198699951
1691674008227148800,1.225148681640625,-0.4745333790779114,-2.711040496826172,-1.7294297218322754
1691674008237193700,1.23519384765625,-0.5157670974731445,-2.3709371089935303,-1.6541767120361328
1691674008247239000,1.245239013671875,-0.5902683138847351,-1.9555367231369019,-1.489017367362976
1691674008257283800,1.255283935546875,-0.7208641171455383,-1.470650553703308,-1.2597697973251343
1691674008267328800,1.265328857421875,-0.8966466784477234,-0.8950251936912537,-0.9823501706123352
1691674008277374700,1.275374755859375,-1.1086504459381104,-0.34771549701690674,-0.6703360676765442
1691674008287420000,1.285419921875,-1.294296145439148,0.11853735148906708,-0.3332618474960327
1691674008297464800,1.29546484375,-1.3744349479675293,0.5193931460380554,0.005730583332479
1691674008307510000,1.305510009765625,-1.3247653245925903,0.9130433201789856,0.3135216236114502
1691674008317554700,1.3155546875,-1.152734398841858,1.2578356266021729,0.578106164932251
1691674008327599900,1.325599853515625,-0.8856039643287659,1.4800233840942383,0.8044439554214478
1691674008337645800,1.335645751953125,-0.5620093941688538,1.6134555339813232,0.9812818169593811
1691674008347690800,1.345690673828125,-0.21282969415187836,1.6776846647262573,1.0973622798919678
1691674008357736000,1.35573583984375,0.13137242197990417,1.6139559745788574,1.133089303970337
1691674008367780900,1.36578076171875,0.42250892519950867,1.3705310821533203,1.0554531812667847
1691674008377825800,1.37582568359375,0.6184669733047485,1.0250376462936401,0.8633603453636169
1691674008387871700,1.385871826171875,0.761457085609436,0.6414467096328735,0.5927719473838806
1691674008397916700,1.395916748046875,0.8967651128768921,0.269573837518692,0.2992899417877197
1691674008407961900,1.4059619140625,1.0354894399642944,-0.013852132484316826,0.018645625561475754
1691674008418006800,1.4160068359375,1.2022414207458496,-0.20248915255069733,-0.21198704838752747
1691674008428052000,1.426052001953125,1.3524562120437622,-0.28477439284324646,-0.3899887800216675
1691674008438098000,1.436097900390625,1.4785795211791992,-0.2507932484149933,-0.49894773960113525
1691674008448143000,1.44614306640625,1.5917699337005615,-0.10106252878904343,-0.5334413647651672
1691674008458188000,1.45618798828125,1.6784316301345825,0.1374903917312622,-0.4780900180339813
1691674008468233000,1.46623291015625,1.7161599397659302,0.3565618395805359,-0.33334997296333313
1691674008478278000,1.47627783203125,1.690108299255371,0.47694018483161926,-0.13748858869075775
1691674008488323800,1.48632373046875,1.6533050537109375,0.46311473846435547,0.034530993551015854
1691674008498369000,1.496369140625,1.6379059553146362,0.36012446880340576,0.11284870654344559
1691674008508414000,1.5064140625,1.6151961088180542,0.2506648898124695,0.06933382153511047
1691674008518459000,1.516458984375,1.5777134895324707,0.2087552696466446,-0.08024395257234573
1691674008528503800,1.52650390625,1.548299789428711,0.27310115098953247,-0.2743561863899231
1691674008538550000,1.536550048828125,1.5487160682678223,0.4905186891555786,-0.41563287377357483
1691674008548595000,1.546594970703125,1.612486481666565,0.8140955567359924,-0.42791175842285156
1691674008558640000,1.55664013671875,1.7295079231262207,1.2144807577133179,-0.2813422977924347
1691674008568685000,1.56668505859375,1.864795446395874,1.59423828125,-0.004083423409610987
1691674008578730000,1.57672998046875,1.9923368692398071,1.9044106006622314,0.3582257926464081
1691674008588775000,1.58677490234375,2.10390043258667,2.1160237789154053,0.7509614825248718
1691674008598820900,1.59682080078125,2.2777724266052246,2.2243459224700928,1.1699773073196411
1691674008608866000,1.606865966796875,2.4516472816467285,2.1705191135406494,1.5350263118743896
1691674008618911000,1.616910888671875,2.5790207386016846,2.0202887058258057,1.7774580717086792
1691674008628956000,1.626955810546875,2.6832163333892822,1.9142613410949707,1.8376145362854004
1691674008639000800,1.637000732421875,2.773491859436035,1.895398736000061,1.6950019598007202
1691674008649046800,1.647046875,2.818561315536499,1.9165328741073608,1.4203259944915771
1691674008659092000,1.657092041015625,2.752819538116455,1.912939429283142,1.1272164583206177
1691674008669137000,1.667136962890625,2.587515115737915,1.8369805812835693,0.9167639017105103
1691674008679182000,1.67718212890625,2.402470111846924,1.7333465814590454,0.8665441274642944
1691674008689226800,1.687226806640625,2.29228138923645,1.6785376071929932,1.0417649745941162
1691674008699273000,1.69727294921875,2.302882432937622,1.5642818212509155,1.428816795349121
1691674008709318000,1.70731787109375,2.402416706085205,1.380867600440979,1.9403460025787354
1691674008719363000,1.717363037109375,2.5678441524505615,1.2237565517425537,2.4393482208251953
1691674008729408000,1.727407958984375,2.7552928924560547,1.1647855043411255,2.803774118423462
1691674008739453000,1.737452880859375,2.8976407051086426,1.1567678451538086,2.9879066944122314
1691674008749499000,1.747498779296875,2.9551756381988525,1.1562532186508179,2.9859812259674072
1691674008759543800,1.757543701171875,2.9187872409820557,1.124049186706543,2.8337886333465576
1691674008769589000,1.767589111328125,2.7633979320526123,1.092483639717102,2.603384017944336
1691674008779634000,1.777634033203125,2.4707512855529785,1.0146842002868652,2.3422982692718506
1691674008789679000,1.78767919921875,2.1259963512420654,0.9561812877655029,2.1152045726776123
1691674008799725000,1.79772509765625,1.8101298809051514,0.967613160610199,1.9609090089797974
1691674008809770000,1.80777001953125,1.615918517112732,1.0815011262893677,1.908384919166565
1691674008819815000,1.81781494140625,1.6042506694793701,1.280013918876648,1.9493520259857178
1691674008829860000,1.827860107421875,1.7884843349456787,1.4412555694580078,2.0424644947052
1691674008839905000,1.837905029296875,2.065910577774048,1.557726502418518,2.1169755458831787
1691674008849951000,1.847950927734375,2.2990429401397705,1.6721175909042358,2.1322171688079834
1691674008859996000,1.857995849609375,2.4179646968841553,1.7016589641571045,2.0692923069000244
1691674008870040800,1.868040771484375,2.44460129737854,1.630271553993225,1.9373090267181396
1691674008880086000,1.8780859375,2.404405355453491,1.4657294750213623,1.7621861696243286
1691674008890131000,1.888130859375,2.3209054470062256,1.2677618265151978,1.5764788389205933
1691674008900177000,1.898177001953125,2.2151269912719727,1.071848750114441,1.4097806215286255
1691674008910222000,1.90822216796875,2.0875868797302246,0.9058678150177002,1.2544870376586914
1691674008920266800,1.918266845703125,1.9557644128799438,0.7911436557769775,1.1109544038772583
1691674008930312000,1.92831201171875,1.8416333198547363,0.7158539295196533,0.9636996388435364
1691674008940356900,1.93835693359375,1.7537380456924438,0.6856340169906616,0.8173256516456604
1691674008950402000,1.948402099609375,1.6788277626037598,0.6835408210754395,0.6979866623878479
1691674008960448000,1.958447998046875,1.5968351364135742,0.7004883885383606,0.6343656182289124
1691674008970493000,1.968492919921875,1.507879376411438,0.7280798554420471,0.645155131816864
1691674008980537900,1.978537841796875,1.4072502851486206,0.6941325068473816,0.7284961342811584
1691674008990583000,1.9885830078125,1.2770678997039795,0.6397454142570496,0.8448893427848816
1691674009000629000,1.99862890625,1.134220004081726,0.5875871181488037,0.954848051071167
1691674009010674000,2.008673828125,0.9722043871879578,0.5573041439056396,1.0249472856521606
1691674009020719000,2.018718994140625,0.8025314807891846,0.5391949415206909,1.037007451057434
1691674009030763800,2.028763671875,0.6300488710403442,0.5319530367851257,0.9887055158615112
1691674009040809000,2.03880908203125,0.464644193649292,0.516691267490387,0.8852246403694153
1691674009050854000,2.04885400390625,0.3087334632873535,0.4956474006175995,0.7517750859260559
1691674009060900000,2.058900146484375,0.16384975612163544,0.47047361731529236,0.6008819341659546
1691674009070945000,2.068945068359375,0.036029547452926636,0.42817944288253784,0.44417133927345276
1691674009080990000,2.078989990234375,-0.07684773206710815,0.34589576721191406,0.30228903889656067
1691674009091035000,2.089034912109375,-0.2044457644224167,0.19706599414348602,0.1829015016555786
1691674009101080000,2.099080078125,-0.3421492874622345,0.014025066047906876,0.09075719118118286
1691674009111126000,2.1091259765625,-0.4848860800266266,-0.18238511681556702,0.02205231599509716
1691674009121171000,2.1191708984375,-0.6248708963394165,-0.41350701451301575,-0.03698251023888588
1691674009131216100,2.129216064453125,-0.7777733206748962,-0.634295642375946,-0.09114255756139755
1691674009141260800,2.1392607421875,-0.9469908475875854,-0.8069520592689514,-0.16577552258968353
1691674009151306000,2.149305908203125,-1.1379435062408447,-0.9507065415382385,-0.2724074125289917
1691674009161352000,2.15935205078125,-1.3369038105010986,-1.0767669677734375,-0.4050733149051666
1691674009171396900,2.16939697265625,-1.5529415607452393,-1.1866259574890137,-0.5307400226593018
1691674009181442000,2.179442138671875,-1.7746646404266357,-1.281506896018982,-0.6200550198554993
1691674009191486700,2.18948681640625,-1.990781307220459,-1.382622241973877,-0.6613976955413818
1691674009201533000,2.199532958984375,-2.1816000938415527,-1.4962785243988037,-0.6493948101997375
1691674009211577900,2.209577880859375,-2.325810194015503,-1.6136858463287354,-0.6135966181755066
1691674009221623000,2.219623046875,-2.4261269569396973,-1.7142093181610107,-0.5878052115440369
1691674009231668000,2.22966796875,-2.4986634254455566,-1.760259985923767,-0.5940910577774048
1691674009241713200,2.239713134765625,-2.5679469108581543,-1.717359185218811,-0.6457489132881165
1691674009251759000,2.249759033203125,-2.649477958679199,-1.604345679283142,-0.7492413520812988
1691674009261803800,2.2598037109375,-2.7393007278442383,-1.4580222368240356,-0.8913172483444214
1691674009271849000,2.269848876953125,-2.8496816158294678,-1.2934900522232056,-1.0530940294265747
1691674009281894000,2.279893798828125,-2.9739043712615967,-1.1475377082824707,-1.2063839435577393
1691674009291939000,2.28993896484375,-3.118823289871216,-1.052855372428894,-1.3497387170791626
1691674009301985000,2.299985107421875,-3.24454402923584,-1.0412641763687134,-1.4942939281463623
1691674009312030000,2.310030029296875,-3.3046088218688965,-1.0426236391067505,-1.670403242111206
1691674009322075000,2.320074951171875,-3.290785789489746,-1.071738362312317,-1.9132603406906128
1691674009332120000,2.3301201171875,-3.2550747394561768,-1.1269603967666626,-2.2226760387420654
1691674009342165000,2.3401650390625,-3.2320542335510254,-1.1843764781951904,-2.5489447116851807
1691674009352211000,2.3502109375,-3.2203209400177,-1.2404603958129883,-2.839010715484619
1691674009362256100,2.360256103515625,-3.2144339084625244,-1.316689133644104,-3.0561742782592773
1691674009372300800,2.37030078125,-3.2266530990600586,-1.4195393323898315,-3.200960397720337
1691674009382346000,2.380345947265625,-3.3041608333587646,-1.6001596450805664,-3.2849996089935303
1691674009392391000,2.390390869140625,-3.441058397293091,-1.8567063808441162,-3.3161375522613525
1691674009402436600,2.4004365234375,-3.568302631378174,-2.156106948852539,-3.286350965499878
1691674009412481500,2.4104814453125,-3.6420464515686035,-2.4502620697021484,-3.185089349746704
1691674009422526500,2.4205263671875,-3.603588819503784,-2.7229089736938477,-3.012620687484741
1691674009432571400,2.4305712890625,-3.4674930572509766,-2.908921480178833,-2.7853143215179443
1691674009442616600,2.440616455078125,-3.2544031143188477,-3.0079636573791504,-2.5417990684509277
1691674009452662500,2.45066259765625,-2.968686819076538,-2.982600688934326,-2.311671495437622
1691674009462707500,2.46070751953125,-2.6483981609344482,-2.8456482887268066,-2.078334093093872
1691674009472752600,2.470752685546875,-2.321202278137207,-2.6548523902893066,-1.824843168258667
1691674009482797300,2.48079736328125,-2.0490963459014893,-2.4517323970794678,-1.5536186695098877
1691674009492842500,2.490842529296875,-1.8591926097869873,-2.2682912349700928,-1.2743080854415894
1691674009502888400,2.500888427734375,-1.684674859046936,-2.0771682262420654,-1.0007894039154053
1691674009512933400,2.510933349609375,-1.4870026111602783,-1.8857102394104004,-0.7379282116889954
1691674009522978600,2.520978515625,-1.2773857116699219,-1.7276103496551514,-0.5111262202262878
1691674009533023200,2.531023193359375,-1.0621528625488281,-1.5867077112197876,-0.3630991280078888
1691674009543068400,2.541068359375,-0.8512730002403259,-1.4522005319595337,-0.3056821823120117
1691674009553114400,2.5511142578125,-0.6493366956710815,-1.341970682144165,-0.32715073227882385
1691674009563159600,2.56115966796875,-0.47003480792045593,-1.2679123878479004,-0.39576733112335205
1691674009573204500,2.57120458984375,-0.31822171807289124,-1.225163459777832,-0.49832484126091003
1691674009583249700,2.581249755859375,-0.19805267453193665,-1.2031803131103516,-0.6117267608642578
1691674009593294300,2.59129443359375,-0.11253409087657928,-1.2369776964187622,-0.7105257511138916
1691674009603340300,2.60134033203125,-0.07008250802755356,-1.3245303630828857,-0.7640039324760437
1691674009613385500,2.611385498046875,-0.0420023649930954,-1.409513235092163,-0.7715801000595093
1691674009623430400,2.621430419921875,-0.05243609473109245,-1.4764790534973145,-0.7603024244308472
1691674009633475600,2.6314755859375,-0.09726158529520035,-1.549486517906189,-0.7356325387954712
1691674009643520300,2.641520263671875,-0.14639584720134735,-1.5973845720291138,-0.6986244320869446
1691674009653566500,2.65156640625,-0.16254045069217682,-1.580879807472229,-0.6507176160812378
1691674009663611400,2.661611328125,-0.14133290946483612,-1.4901163578033447,-0.5858278274536133
1691674009673656600,2.671656494140625,-0.08394484221935272,-1.3500889539718628,-0.48770710825920105
1691674009683701500,2.681701416015625,-0.0018539638258516788,-1.1807142496109009,-0.377092182636261
1691674009693746700,2.69174658203125,0.1080949530005455,-0.9975979328155518,-0.255376935005188
1691674009703792400,2.70179248046875,0.23843005299568176,-0.8115656971931458,-0.14380328357219696
1691674009713837300,2.71183740234375,0.37810760736465454,-0.6367872953414917,-0.039912931621074677
1691674009723882500,2.721882568359375,0.5189611315727234,-0.4767395853996277,0.03458287566900253
1691674009733927400,2.731927490234375,0.6193556785583496,-0.2758580446243286,0.06374379247426987
1691674009743973400,2.741973388671875,0.6330273151397705,-0.12055261433124542,0.05731705576181412
1691674009754018600,2.7520185546875,0.6176040172576904,0.00013394514098763466,0.02267879620194435
1691674009764063200,2.762063232421875,0.5879355669021606,0.10633042454719543,0.009987503290176392
1691674009774108400,2.7721083984375,0.5553164482116699,0.1711057722568512,0.05094968527555466
1691674009784153300,2.7821533203125,0.5495592355728149,0.19498580694198608,0.14244817197322845
1691674009794199600,2.792199462890625,0.5643085837364197,0.19565044343471527,0.27800920605659485
1691674009804244500,2.802244384765625,0.5966734290122986,0.20540453493595123,0.46220436692237854
1691674009814289700,2.81228955078125,0.6591913104057312,0.28879332542419434,0.6694363355636597
1691674009824334300,2.822334228515625,0.7581951022148132,0.3993704319000244,0.8940929174423218
1691674009834379500,2.832379638671875,0.8693429231643677,0.5094271898269653,1.1142650842666626
1691674009844425500,2.842425537109375,0.9689773917198181,0.6284584999084473,1.272486686706543
1691674009854470400,2.852470458984375,1.0103654861450195,0.7270110845565796,1.3446580171585083
1691674009864515600,2.862515625,0.9861461520195007,0.7869386076927185,1.3244038820266724
1691674009874560300,2.872560302734375,0.9177746772766113,0.8350241780281067,1.2315030097961426
1691674009884605400,2.88260546875,0.8331865668296814,0.8502041697502136,1.099449872970581
1691674009894651400,2.8926513671875,0.7863547205924988,0.8529022336006165,0.9384282231330872
1691674009904696600,2.902696533203125,0.7937690019607544,0.8864564895629883,0.7935150265693665
1691674009914741500,2.912741455078125,0.8457692265510559,0.9528235793113708,0.6899896860122681
1691674009924786700,2.92278662109375,0.9296835660934448,1.0120773315429688,0.6186310648918152
1691674009934832400,2.932832275390625,1.0208330154418945,1.028367280960083,0.559054970741272
1691674009944877300,2.942877197265625,1.0907598733901978,0.9802055954933167,0.491366446018219
1691674009954922500,2.952922607421875,1.1539874076843262,0.9481674432754517,0.4199288487434387
1691674009964967400,2.962967529296875,1.245078444480896,0.9637767672538757,0.3188895881175995
1691674009975012600,2.9730126953125,1.350346326828003,0.9958158731460571,0.19157882034778595
1691674009985058600,2.98305859375,1.3858704566955566,1.0105894804000854,0.10153708606958389
1691674009995103200,2.993103271484375,1.3373509645462036,1.0028266906738281,0.11265991628170013
1691674010005148400,3.0031484375,1.2450069189071655,0.9870407581329346,0.23233650624752045
1691674010015193300,3.013193359375,1.1619594097137451,1.01193106174469,0.42759454250335693
1691674010025238500,3.023238525390625,1.11293363571167,1.086914300918579,0.658846914768219
1691674010035284500,3.033284423828125,1.1249598264694214,1.1381019353866577,0.8915780782699585
1691674010045329700,3.04332958984375,1.1738845109939575,1.1325149536132812,1.1130907535552979
1691674010055374300,3.053374267578125,1.2568014860153198,1.108726978302002,1.2964327335357666
1691674010065419500,3.06341943359375,1.3464850187301636,1.094142198562622,1.4106242656707764
1691674010075465500,3.073465576171875,1.4467836618423462,1.116207242012024,1.4462313652038574
1691674010085510400,3.083510498046875,1.5503931045532227,1.1994597911834717,1.4202216863632202
1691674010095555600,3.0935556640625,1.6339951753616333,1.3303190469741821,1.3507177829742432
1691674010105600300,3.103600341796875,1.66631019115448,1.4838851690292358,1.249764323234558
1691674010115645400,3.1136455078125,1.6610188484191895,1.674971580505371,1.1364377737045288
1691674010125691400,3.12369140625,1.6442328691482544,1.8725019693374634,1.0368808507919312
1691674010135736600,3.133736572265625,1.6299850940704346,2.0540003776550293,0.9959504008293152
1691674010145781500,3.143781494140625,1.6150985956192017,2.1913201808929443,1.0365673303604126
1691674010155826700,3.15382666015625,1.602879524230957,2.256295919418335,1.1280858516693115
1691674010165871400,3.163871337890625,1.6161856651306152,2.254502534866333,1.2568364143371582
1691674010175917300,3.173917236328125,1.6591860055923462,2.221442222595215,1.3760844469070435
1691674010185962500,3.18396240234375,1.7199718952178955,2.170804023742676,1.4666966199874878
1691674010196007400,3.19400732421875,1.785024642944336,2.117351531982422,1.5080620050430298
1691674010206052600,3.204052490234375,1.8426916599273682,2.0659453868865967,1.50078284740448
1691674010216098600,3.2140986328125,1.8732234239578247,1.9994521141052246,1.4435442686080933
1691674010226143500,3.2241435546875,1.8940975666046143,1.9287829399108887,1.3573664426803589
1691674010236188400,3.2341884765625,1.9127317667007446,1.8442364931106567,1.2470850944519043
1691674010246233300,3.2442333984375,1.914040446281433,1.7179981470108032,1.1393433809280396
1691674010256278500,3.254278564453125,1.8760554790496826,1.5302006006240845,1.0641735792160034
1691674010266324500,3.264324462890625,1.820878267288208,1.353476643562317,1.0290685892105103
1691674010276369400,3.274369384765625,1.7708171606063843,1.182651162147522,1.0143808126449585
1691674010286414300,3.284414306640625,1.7318018674850464,1.0269957780838013,0.9964640736579895
1691674010296459500,3.29445947265625,1.7034887075424194,0.9172589182853699,0.9720799326896667
1691674010306505500,3.30450537109375,1.681766390800476,0.8520658016204834,0.9217435717582703
1691674010316550400,3.31455029296875,1.6669446229934692,0.7991725206375122,0.8622030019760132
1691674010326595600,3.324595703125,1.6404693126678467,0.7500686049461365,0.7871931791305542
1691674010336640300,3.33464013671875,1.6097744703292847,0.7074465155601501,0.6864631175994873
1691674010346685400,3.344685546875,1.5740370750427246,0.6700000762939453,0.5809633135795593
1691674010356731400,3.3547314453125,1.5004544258117676,0.5855767130851746,0.48214104771614075
1691674010366776600,3.364776611328125,1.373618721961975,0.4567076861858368,0.41491779685020447
1691674010376821500,3.374821533203125,1.210108757019043,0.312037855386734,0.3603891134262085
1691674010386866700,3.38486669921875,1.0317760705947876,0.1681312918663025,0.3235674500465393
1691674010396911400,3.394911376953125,0.8501313328742981,0.03861143812537193,0.2894052565097809
1691674010406957800,3.404957763671875,0.6471973657608032,-0.04467573016881943,0.2485659271478653
1691674010417003000,3.4150029296875,0.42485713958740234,-0.1283467411994934,0.21962745487689972
1691674010427048000,3.4250478515625,0.21566423773765564,-0.1742955893278122,0.20958787202835083
1691674010437093000,3.435093017578125,0.04680318012833595,-0.17621564865112305,0.23219706118106842
1691674010447139000,3.44513916015625,-0.06627996265888214,-0.1568230390548706,0.28588002920150757
1691674010457183700,3.455183837890625,-0.1559084951877594,-0.1299784779548645,0.35097524523735046
1691674010467229000,3.46522900390625,-0.23379690945148468,-0.12452112138271332,0.376038521528244
1691674010477273900,3.47527392578125,-0.31476330757141113,-0.15929442644119263,0.3498137295246124
1691674010487319000,3.485319091796875,-0.42524775862693787,-0.2282354086637497,0.27825137972831726
1691674010497365000,3.495364990234375,-0.5840867757797241,-0.3021910786628723,0.16826550662517548
1691674010507410200,3.50541015625,-0.7667644023895264,-0.39082613587379456,0.03894666209816933
1691674010517454800,3.515454833984375,-0.9601256251335144,-0.495251327753067,-0.09145928174257278
1691674010527500000,3.5255,-1.142112374305725,-0.5895008444786072,-0.19612416625022888
1691674010537546000,3.5355458984375,-1.307016372680664,-0.6765654683113098,-0.2643962800502777
1691674010547591000,3.5455908203125,-1.4678516387939453,-0.7750441431999207,-0.29930099844932556
1691674010557636000,3.555635986328125,-1.6316722631454468,-0.8397663831710815,-0.3046041429042816
1691674010567680800,3.5656806640625,-1.815288782119751,-0.8490710854530334,-0.3083406090736389
1691674010577726000,3.575725830078125,-1.9821884632110596,-0.8148022890090942,-0.3292650580406189
1691674010587772000,3.58577197265625,-2.1067142486572266,-0.7563650608062744,-0.3720921576023102
1691674010597816800,3.59581689453125,-2.2239341735839844,-0.6762999296188354,-0.40440574288368225
1691674010607862000,3.605862060546875,-2.3662221431732178,-0.5967736840248108,-0.43774905800819397
1691674010617907000,3.615906982421875,-2.4700090885162354,-0.5176860094070435,-0.5057649612426758
1691674010627953200,3.625953125,-2.527165412902832,-0.45732972025871277,-0.6293660402297974
1691674010637997800,3.635997802734375,-2.6115384101867676,-0.44245457649230957,-0.7856845855712891
1691674010648043000,3.64604296875,-2.766688108444214,-0.5295039415359497,-0.9412611126899719
1691674010658088000,3.656087890625,-2.979401111602783,-0.7059495449066162,-1.0793901681900024
1691674010668133000,3.666133056640625,-3.2371408939361572,-0.8718512058258057,-1.1450291872024536
1691674010678179000,3.676178955078125,-3.505394697189331,-1.0382133722305298,-1.1578071117401123
1691674010688223700,3.6862236328125,-3.6994006633758545,-1.231020450592041,-1.1707087755203247
1691674010698269000,3.69626904296875,-3.7776594161987305,-1.4285674095153809,-1.2069246768951416
1691674010708313900,3.70631396484375,-3.767024040222168,-1.6176100969314575,-1.2361533641815186
1691674010718360000,3.716360107421875,-3.677006244659424,-1.778764247894287,-1.2508251667022705
1691674010728405000,3.726405029296875,-3.5261693000793457,-1.9044151306152344,-1.2354462146759033
1691674010738450200,3.7364501953125,-3.3721601963043213,-1.9839260578155518,-1.1925593614578247
1691674010748494800,3.746494873046875,-3.276481866836548,-2.0396876335144043,-1.1104005575180054
1691674010758540000,3.7565400390625,-3.223612070083618,-2.076554775238037,-1.0056511163711548
1691674010768586000,3.7665859375,-3.153165340423584,-2.087069034576416,-0.8761906027793884
1691674010778631000,3.776630859375,-3.0276601314544678,-2.065502643585205,-0.714487612247467
1691674010788676000,3.786676025390625,-2.856574535369873,-2.0489158630371094,-0.5341058373451233
1691674010798720800,3.796720703125,-2.6534595489501953,-2.0319972038269043,-0.34669238328933716
1691674010808766700,3.8067666015625,-2.3978002071380615,-1.9799480438232422,-0.18657462298870087
1691674010818812000,3.81681201171875,-2.1049883365631104,-1.9030247926712036,-0.09163587540388107
1691674010828856800,3.82685693359375,-1.8004316091537476,-1.8183352947235107,-0.09621251374483109
1691674010838902000,3.836902099609375,-1.5117853879928589,-1.7356797456741333,-0.1900576949119568
1691674010848947000,3.846947021484375,-1.2657028436660767,-1.6869425773620605,-0.34563663601875305
1691674010858993200,3.8569931640625,-1.0390461683273315,-1.6765145063400269,-0.5095476508140564
1691674010869037800,3.867037841796875,-0.8188682198524475,-1.6986544132232666,-0.6362398266792297
1691674010879083000,3.8770830078125,-0.6359511613845825,-1.7306078672409058,-0.696559488773346
1691674010889128000,3.8871279296875,-0.5306398868560791,-1.7693688869476318,-0.7286825180053711
1691674010899174000,3.897173828125,-0.4373774826526642,-1.787057638168335,-0.7484796643257141
1691674010909219000,3.907218994140625,-0.3304062783718109,-1.767302393913269,-0.7419461607933044
1691674010919263700,3.917263671875,-0.22961127758026123,-1.7111507654190063,-0.6874691843986511
1691674010929309000,3.927308837890625,-0.14935611188411713,-1.6508562564849854,-0.6155989766120911
1691674010939355000,3.93735498046875,-0.09970466047525406,-1.597233533859253,-0.5351012349128723
1691674010949400000,3.947400146484375,-0.055689264088869095,-1.519591212272644,-0.4571540057659149
1691674010959445000,3.957445068359375,-0.013708025217056274,-1.425873875617981,-0.39647382497787476
1691674010969490200,3.967490234375,0.037743713706731796,-1.3098037242889404,-0.33533430099487305
1691674010979534800,3.977534912109375,0.07233322411775589,-1.1852312088012695,-0.27815964818000793
1691674010989580800,3.987580810546875,0.07874558866024017,-1.0827298164367676,-0.24513593316078186
1691674010999626000,3.9976259765625,0.05174128711223602,-1.0032421350479126,-0.25396275520324707
1691674011009671000,4.0076708984375,0.008061452768743038,-0.9231234192848206,-0.2903735041618347
1691674011019716000,4.017716064453125,-0.03707123175263405,-0.8454014658927917,-0.3376801311969757
1691674011029760800,4.0277607421875,-0.07869644463062286,-0.7729032635688782,-0.39226827025413513
1691674011039806700,4.037806640625,-0.09859919548034668,-0.7576891183853149,-0.4539295434951782
1691674011049852000,4.047851806640625,-0.09192211925983429,-0.7420177459716797,-0.4848347306251526
1691674011059896800,4.057896728515625,-0.081387959420681,-0.6900520324707031,-0.4654174745082855
1691674011069942000,4.06794189453125,-0.0530276894569397,-0.6429167985916138,-0.38166025280952454
1691674011079988000,4.077988037109375,0.000384847866371274,-0.5934261083602905,-0.2472662329673767
1691674011090033200,4.088033203125,0.06748665124177933,-0.5220353007316589,-0.09384845197200775
1691674011100077800,4.098077880859375,0.12657415866851807,-0.45754653215408325,0.07657389342784882
1691674011110123000,4.108123046875,0.17028169333934784,-0.3858361542224884,0.23510360717773438
1691674011120169000,4.1181689453125,0.23050248622894287,-0.3123387098312378,0.3608689308166504
1691674011130214000,4.1282138671875,0.31920573115348816,-0.21436341106891632,0.4272884428501129
1691674011140259000,4.138259033203125,0.4071773588657379,-0.10003683716058731,0.44610077142715454
1691674011150303700,4.1483037109375,0.47391778230667114,0.019345751032233238,0.4374295175075531
1691674011160350000,4.158349853515625,0.5159448385238647,0.13904885947704315,0.41237086057662964
1691674011170395000,4.168394775390625,0.5646023750305176,0.2558409869670868,0.37712204456329346
1691674011180440000,4.178440185546875,0.6386256814002991,0.3528444170951843,0.3485003113746643
1691674011190485000,4.188485107421875,0.7013857364654541,0.4362618029117584,0.32478779554367065
1691674011200530200,4.1985302734375,0.7442911863327026,0.5147934556007385,0.30700233578681946
1691674011210576100,4.208576171875,0.7606810927391052,0.5535397529602051,0.2999873161315918
1691674011220620800,4.218620849609375,0.7514018416404724,0.5567951798439026,0.2953364849090576
1691674011230666000,4.228666015625,0.7301111817359924,0.5553877353668213,0.28458237648010254
1691674011240711000,4.2387109375,0.7267431616783142,0.5303824543952942,0.27455079555511475
1691674011250756900,4.2487568359375,0.7294777035713196,0.4825723171234131,0.23753419518470764
1691674011260802000,4.258802001953125,0.7323894500732422,0.4436214566230774,0.1440662294626236
1691674011270846700,4.2688466796875,0.7399322986602783,0.41604840755462646,0.0006515306886285543
1691674011280892000,4.278891845703125,0.7434455156326294,0.37820690870285034,-0.15867918729782104
1691674011290936800,4.288936767578125,0.7234760522842407,0.32705315947532654,-0.30862370133399963
1691674011300983000,4.298983154296875,0.7086436152458191,0.3006190359592438,-0.4302966594696045
1691674011311028000,4.309028076171875,0.7352023124694824,0.30968761444091797,-0.5412561893463135
1691674011321073200,4.3190732421875,0.7924413681030273,0.37550169229507446,-0.6713207364082336
1691674011331117800,4.329117919921875,0.790664792060852,0.4648187756538391,-0.7605879902839661
1691674011341163800,4.339163818359375,0.7132590413093567,0.5714095234870911,-0.7633194327354431
1691674011351209000,4.349208984375,0.5872965455055237,0.6790717840194702,-0.6535519361495972
1691674011361254000,4.35925390625,0.4721568822860718,0.7957032918930054,-0.46979522705078125
1691674011371299000,4.369299072265625,0.3939230740070343,0.8991124629974365,-0.26012134552001953
1691674011381345000,4.379344970703125,0.36059680581092834,0.9774419069290161,-0.08199289441108704
1691674011391390000,4.389389892578125,0.3836808204650879,1.0531619787216187,0.03158187493681908
1691674011401435000,4.399434814453125,0.4847421944141388,1.1301765441894531,0.07429754734039307
1691674011411483100,4.409483154296875,0.6445704698562622,1.1980040073394775,0.06709369271993637
1691674011421528000,4.419528076171875,0.8198899626731873,1.2518223524093628,0.024694325402379036
1691674011431574000,4.429573974609375,0.9874699115753174,1.3113842010498047,-0.03364488482475281
1691674011441619200,4.439619140625,1.1387509107589722,1.3584822416305542,-0.07306231558322906
1691674011451664000,4.449663818359375,1.2676827907562256,1.3916075229644775,-0.08676348626613617
1691674011461709000,4.459708984375,1.3802602291107178,1.4313942193984985,-0.06640474498271942
1691674011471755000,4.469755126953125,1.4741071462631226,1.4832569360733032,-0.012928741984069347
1691674011481800200,4.47980029296875,1.543094515800476,1.5627895593643188,0.08452169597148895
1691674011491845000,4.48984521484375,1.6043578386306763,1.6542651653289795,0.23537859320640564
1691674011501890300,4.499890380859375,1.6467843055725098,1.7541253566741943,0.45063239336013794
1691674011511936300,4.509936279296875,1.674283504486084,1.8466776609420776,0.7062932252883911
1691674011521981000,4.51998095703125,1.6954338550567627,1.9261993169784546,0.9638413786888123
1691674011532026000,4.530026123046875,1.7313241958618164,1.9920973777770996,1.2049813270568848
1691674011542071000,4.540071044921875,1.748550295829773,2.0480823516845703,1.414879322052002
1691674011552117000,4.550116943359375,1.6934425830841064,2.0955286026000977,1.5795899629592896
1691674011562162200,4.560162109375,1.5832338333129883,2.1446120738983154,1.6630481481552124
1691674011572206800,4.570206787109375,1.4902693033218384,2.211742401123047,1.6638119220733643
1691674011582252000,4.580251953125,1.4319548606872559,2.2607154846191406,1.637150764465332
1691674011592297000,4.590296875,1.3804199695587158,2.285369634628296,1.5848309993743896
1691674011602343200,4.60034326171875,1.340079665184021,2.3168342113494873,1.5254337787628174
1691674011612388000,4.61038818359375,1.3334989547729492,2.340888261795044,1.4577585458755493
1691674011622433300,4.620433349609375,1.3666507005691528,2.3412575721740723,1.3764818906784058
1691674011632478000,4.63047802734375,1.4156886339187622,2.3117713928222656,1.2799828052520752
1691674011642524000,4.64052392578125,1.4491615295410156,2.224137783050537,1.1576013565063477
1691674011652569000,4.650569091796875,1.4583094120025635,2.1009247303009033,1.0191487073898315
1691674011662614000,4.660614013671875,1.4639230966567993,1.9761953353881836,0.8867563009262085
1691674011672659200,4.6706591796875,1.45676851272583,1.8290215730667114,0.7741492986679077
1691674011682705200,4.680705078125,1.4315203428268433,1.6696441173553467,0.6705225706100464
1691674011692750000,4.69075,1.3877989053726196,1.49079430103302,0.5666089653968811
1691674011702795000,4.700794921875,1.3037699460983276,1.2914304733276367,0.4839803874492645
1691674011712840200,4.710840087890625,1.1877024173736572,1.1135281324386597,0.4222419261932373
1691674011722886100,4.72088623046875,1.0643439292907715,0.965705156326294,0.3640001714229584
1691674011732931000,4.73093115234375,0.9642117619514465,0.8439896702766418,0.309296190738678
1691674011742976300,4.740976318359375,0.9050276875495911,0.7209957242012024,0.2755528390407562
1691674011753021000,4.75102099609375,0.8560506105422974,0.5973254442214966,0.2627134621143341
1691674011763066000,4.761066162109375,0.8272848129272461,0.5215068459510803,0.25817662477493286
1691674011773112000,4.771112060546875,0.8252264261245728,0.48054102063179016,0.25148382782936096
1691674011783157000,4.781156982421875,0.8341206908226013,0.4515054523944855,0.22895073890686035
1691674011793202200,4.7912021484375,0.8204905986785889,0.43079322576522827,0.19680318236351013
1691674011803246800,4.801246826171875,0.7714884281158447,0.38943302631378174,0.1537618488073349
1691674011813293000,4.81129296875,0.6841692328453064,0.34693294763565063,0.11678945273160934
1691674011823338000,4.821337890625,0.5710442662239075,0.3155389130115509,0.10704638063907623
1691674011833383200,4.831383056640625,0.45428141951560974,0.2892199456691742,0.1346556395292282
1691674011843428000,4.841427978515625,0.34236499667167664,0.2701791822910309,0.1861993819475174
1691674011853474000,4.85147412109375,0.21762652695178986,0.24287939071655273,0.2538178563117981
1691674011863519200,4.861519287109375,0.055785149335861206,0.18979153037071228,0.31137508153915405
1691674011873564000,4.87156396484375,-0.12686190009117126,0.13168030977249146,0.34881192445755005
1691674011883609000,4.881609130859375,-0.2926007807254791,0.09290967136621475,0.3703622817993164
1691674011893655000,4.891655029296875,-0.4098219573497772,0.07275540381669998,0.39855796098709106
1691674011903700200,4.9017001953125,-0.4856119751930237,0.05831533670425415,0.4240548014640808
1691674011913745200,4.9117451171875,-0.5388946533203125,0.04921771213412285,0.4349231719970703
1691674011923790000,4.9217900390625,-0.5812133550643921,0.051060114055871964,0.4381179213523865
1691674011933835000,4.9318349609375,-0.6304435133934021,0.02542079985141754,0.45926129817962646
1691674011943881000,4.941880859375,-0.7127912640571594,-0.023458153009414673,0.5044740438461304
1691674011953926100,4.951926025390625,-0.8007006049156189,-0.07363876700401306,0.5685003995895386
1691674011963971000,4.96197119140625,-0.8732946515083313,-0.14630910754203796,0.6663426160812378
1691674011974016300,4.972016357421875,-0.9542009830474854,-0.25753602385520935,0.7713289856910706
1691674011984062200,4.982062255859375,-1.0527033805847168,-0.3634631633758545,0.8416534066200256
1691674011994107000,4.99210693359375,-1.150111436843872,-0.43400683999061584,0.8448659777641296
1691674012004152000,5.002152099609375,-1.2422055006027222,-0.5031318664550781,0.80112224817276
1691674012014197000,5.012197021484375,-1.3129907846450806,-0.5752084851264954,0.7086570262908936
1691674012024243200,5.0222431640625,-1.3600431680679321,-0.6561216115951538,0.5827317237854004
1691674012034288000,5.0322880859375,-1.4041770696640015,-0.7376851439476013,0.4338730275630951
1691674012044333000,5.0423330078125,-1.4622347354888916,-0.8134511113166809,0.3028610348701477
1691674012054378000,5.0523779296875,-1.5344218015670776,-0.8894225358963013,0.19948458671569824
1691674012064424000,5.062423828125,-1.5950580835342407,-0.9514344930648804,0.133925199508667
1691674012074469000,5.07246923828125,-1.626125454902649,-1.0063296556472778,0.12267468124628067
1691674012084514000,5.08251416015625,-1.6355416774749756,-1.055359959602356,0.19205503165721893
1691674012094559200,5.092559326171875,-1.642399549484253,-1.0844389200210571,0.32058608531951904
1691674012104605000,5.10260498046875,-1.6392520666122437,-1.078647255897522,0.4780382215976715
1691674012114650000,5.112650146484375,-1.6261900663375854,-1.047294020652771,0.6364558339118958
1691674012124695000,5.122695068359375,-1.611124873161316,-0.9892913103103638,0.7809805274009705
1691674012134740200,5.132740234375,-1.5984638929367065,-0.9087597131729126,0.915959358215332
1691674012144786200,5.1427861328125,-1.6035289764404297,-0.7982492446899414,1.007411241531372
1691674012154831000,5.1528310546875,-1.6379684209823608,-0.6727187633514404,1.0549614429473877
1691674012164876000,5.1628759765625,-1.7042944431304932,-0.5590616464614868,1.0831905603408813
1691674012174921000,5.1729208984375,-1.8020399808883667,-0.4393077492713928,1.130961537361145
1691674012184966100,5.182966064453125,-1.9121325016021729,-0.3171980679035187,1.2180283069610596
1691674012195012000,5.19301220703125,-2.014400005340576,-0.1900257170200348,1.3501921892166138
1691674012205057000,5.20305712890625,-2.037677526473999,-0.037720076739788055,1.528416633605957
1691674012215102200,5.213102294921875,-1.9657666683197021,0.12122270464897156,1.7433552742004395
1691674012225147100,5.223147216796875,-1.8206745386123657,0.2740633487701416,1.948975920677185
1691674012235193000,5.233193115234375,-1.6214405298233032,0.4207579493522644,2.088766098022461
1691674012245238000,5.243238037109375,-1.3884291648864746,0.6107529401779175,2.117932081222534
1691674012255283200,5.253283203125,-1.1571863889694214,0.8301424980163574,2.0325093269348145
1691674012265328000,5.263328125,-0.959022581577301,1.00032377243042,1.8289066553115845
1691674012275374000,5.2733740234375,-0.8174846172332764,1.0797955989837646,1.5498073101043701
1691674012285419000,5.2834189453125,-0.719254195690155,1.0606443881988525,1.242628574371338
1691674012295464000,5.2934638671875,-0.6570934057235718,0.9923830628395081,0.9957058429718018
1691674012305509000,5.303509033203125,-0.6021319627761841,0.9491063356399536,0.8286288976669312
1691674012315555000,5.31355517578125,-0.5064107179641724,0.9566353559494019,0.7608386874198914
1691674012325600300,5.323600341796875,-0.3679336905479431,1.0115662813186646,0.7696718573570251
1691674012335645000,5.33364501953125,-0.2039753645658493,1.1195333003997803,0.854256272315979
1691674012345690000,5.343690185546875,-0.04710124060511589,1.2579883337020874,0.9824362993240356
1691674012355736000,5.353736083984375,0.07100622355937958,1.4083682298660278,1.141402244567871
1691674012365781000,5.363781005859375,0.12724162638187408,1.5514098405838013,1.3071743249893188
1691674012375826200,5.373826171875,0.10211630165576935,1.651563048362732,1.4905296564102173
1691674012385871000,5.38387109375,0.024053459987044334,1.7398103475570679,1.7036662101745605
1691674012395917000,5.3939169921875,-0.05625070258975029,1.822282314300537,1.9310569763183594
1691674012405959000,5.403958984375,-0.09560752660036087,1.8801414966583252,2.161713123321533
1691674012416003800,5.41400390625,-0.1116674467921257,1.9414304494857788,2.3844971656799316
1691674012426048800,5.424048828125,-0.11519230157136917,2.0043838024139404,2.5716779232025146
1691674012436094700,5.4340947265625,-0.1212983950972557,2.058427095413208,2.6824207305908203
1691674012446140000,5.444139892578125,-0.12238125503063202,2.1434285640716553,2.7219114303588867
1691674012456184800,5.454184814453125,-0.09923572838306427,2.230698823928833,2.7118749618530273
1691674012466230000,5.46422998046875,-0.020392220467329025,2.307910919189453,2.675963878631592
1691674012476276000,5.47427587890625,0.09360971301794052,2.382066011428833,2.6272411346435547
1691674012486321000,5.48432080078125,0.19849063456058502,2.4522411823272705,2.544311285018921
1691674012496365800,5.49436572265625,0.24953331053256989,2.5031325817108154,2.419889211654663
1691674012506410800,5.50441064453125,0.26375138759613037,2.5648767948150635,2.2434072494506836
1691674012516457000,5.51445703125,0.2715728282928467,2.6270229816436768,2.050199508666992
1691674012526502000,5.524501953125,0.27834370732307434,2.676849842071533,1.8426204919815063
1691674012536547000,5.534547119140625,0.2845906615257263,2.7179012298583984,1.6264615058898926
1691674012546591700,5.544591796875,0.31049948930740356,2.776182174682617,1.4247180223464966
1691674012556637700,5.5546376953125,0.3670778274536133,2.8357994556427,1.2364810705184937
1691674012566683000,5.564682861328125,0.45318445563316345,2.8842227458953857,1.0719324350357056
1691674012576727800,5.574727783203125,0.5470808148384094,2.9343483448028564,0.9239022135734558
1691674012586773000,5.58477294921875,0.6335344910621643,2.969010829925537,0.8010154366493225
1691674012596819000,5.59481884765625,0.7079562544822693,2.9750335216522217,0.6969507932662964
1691674012606864000,5.60486376953125,0.771913468837738,2.9664342403411865,0.6079097390174866
1691674012616908800,5.61490869140625,0.8095104098320007,2.9181203842163086,0.5397485494613647
1691674012626953700,5.62495361328125,0.8241010308265686,2.844127893447876,0.4949178695678711
1691674012636999000,5.6349990234375,0.7960387468338013,2.7543210983276367,0.4552042782306671
1691674012647044900,5.645044921875,0.7432795763015747,2.645049571990967,0.39802804589271545
1691674012657090000,5.655090087890625,0.7056666612625122,2.536175012588501,0.32841938734054565
1691674012667134700,5.665134765625,0.6931875944137573,2.432690143585205,0.23944978415966034
1691674012677180000,5.675179931640625,0.6931742429733276,2.317471504211426,0.1313326358795166
1691674012687225900,5.685225830078125,0.6907451748847961,2.1525332927703857,0.04087156802415848
1691674012697270800,5.695270751953125,0.698745608329773,1.9567064046859741,-0.010122905485332012
1691674012707316000,5.70531591796875,0.7093101143836975,1.759752631187439,-0.02592899650335312
1691674012717361000,5.71536083984375,0.718305230140686,1.565679669380188,-0.011267229914665222
1691674012727407000,5.725406982421875,0.7307272553443909,1.3899097442626953,0.03399604931473732
1691674012737451800,5.73545166015625,0.7425400018692017,1.2559146881103516,0.10158627480268478
1691674012747497000,5.7454970703125,0.7530444264411926,1.173156499862671,0.17121411859989166
1691674012757542000,5.7555419921875,0.7519285678863525,1.1081844568252563,0.212678462266922
1691674012767587800,5.765587890625,0.7298529744148254,1.0402839183807373,0.24862371385097504
1691674012777633000,5.775633056640625,0.7196823954582214,0.9744991064071655,0.28333911299705505
1691674012787677700,5.785677734375,0.7128645777702332,0.9021480679512024,0.31553858518600464
1691674012797723000,5.795722900390625,0.6819111704826355,0.7914396524429321,0.35426467657089233
1691674012807768800,5.805768798828125,0.6344130635261536,0.6986408829689026,0.3875460624694824
1691674012817813800,5.815813720703125,0.5966110825538635,0.6233109831809998,0.4302509129047394
1691674012827859000,5.82585888671875,0.5823387503623962,0.580056369304657,0.46992799639701843
1691674012837904000,5.83590380859375,0.5900435447692871,0.5697608590126038,0.5077653527259827
1691674012847950000,5.8459501953125,0.625151515007019,0.6181749105453491,0.54730623960495
1691674012857994800,5.855994873046875,0.6877014636993408,0.7146481871604919,0.5865803956985474
1691674012868040000,5.8660400390625,0.7719075083732605,0.8246908187866211,0.6323352456092834
1691674012878084900,5.8760849609375,0.8514318466186523,0.8961021304130554,0.7170549631118774
1691674012888130800,5.886130859375,0.8891727924346924,0.8913934826850891,0.8576998114585876
1691674012898176000,5.896176025390625,0.8723331093788147,0.8097894191741943,1.0640966892242432
1691674012908220700,5.906220703125,0.8047268390655518,0.699103057384491,1.293565034866333
1691674012918265900,5.916265869140625,0.7216841578483582,0.611692488193512,1.5202341079711914
1691674012928311800,5.926311767578125,0.6547096371650696,0.5737770199775696,1.6913610696792603
1691674012938357000,5.93635693359375,0.6283429861068726,0.5781896114349365,1.8007493019104004
1691674012948402000,5.94640185546875,0.6458556056022644,0.6029929518699646,1.8710212707519531
1691674012958447000,5.956447021484375,0.707442581653595,0.6483659744262695,1.9138920307159424
1691674012968493000,5.9664931640625,0.8034530282020569,0.7252110242843628,1.9192414283752441
1691674012978537700,5.976537841796875,0.8988048434257507,0.8191258311271667,1.8957791328430176
1691674012988583000,5.9865830078125,0.9663944840431213,0.8824999928474426,1.8806036710739136
1691674012998627800,5.9966279296875,0.9913709163665771,0.879787027835846,1.9257514476776123
1691674013008673800,6.006673828125,0.9871113300323486,0.8175926804542542,2.0146963596343994
1691674013018719000,6.016718994140625,0.9762355089187622,0.7495771646499634,2.1131622791290283
1691674013028763600,6.026763671875,0.9724007248878479,0.6855660080909729,2.202070951461792
1691674013038808800,6.036808837890625,0.997273862361908,0.6444710493087769,2.295544147491455
1691674013048854800,6.046854736328125,1.0564978122711182,0.6273080706596375,2.3968191146850586
1691674013058900000,6.05689990234375,1.1347463130950928,0.643184244632721,2.505485773086548
1691674013068945000,6.06694482421875,1.2161281108856201,0.6717578768730164,2.6035850048065186
1691674013078990000,6.076989990234375,1.282627820968628,0.7071619629859924,2.7037088871002197
1691674013089035800,6.087035888671875,1.3226205110549927,0.7650904059410095,2.814983606338501
1691674013099080700,6.097080810546875,1.308471918106079,0.8227981328964233,2.924227714538574
1691674013109126000,6.1071259765625,1.2584590911865234,0.8759282231330872,3.045715808868408
1691674013119170800,6.1171708984375,1.2006440162658691,0.9572252631187439,3.163041353225708
1691674013129217000,6.127217041015625,1.1525942087173462,1.0585644245147705,3.2671287059783936
1691674013139262000,6.137261962890625,1.1136354207992554,1.1617834568023682,3.3575503826141357
1691674013149307000,6.147306884765625,1.091463565826416,1.2881635427474976,3.426276445388794
1691674013159351800,6.157351806640625,1.0971380472183228,1.4188473224639893,3.4756112098693848
1691674013169397800,6.167397705078125,1.1164048910140991,1.5554230213165283,3.503026008605957
1691674013179443000,6.17744287109375,1.142794132232666,1.6973479986190796,3.490621328353882
1691674013189487900,6.18748779296875,1.1918566226959229,1.8400583267211914,3.443241834640503
1691674013199533000,6.197532958984375,1.2431514263153076,1.9519187211990356,3.366804361343384
1691674013209578800,6.207578857421875,1.2901885509490967,2.0036184787750244,3.2768514156341553
1691674013219623700,6.217623779296875,1.3280129432678223,2.015164613723755,3.1788783073425293
1691674013229668900,6.2276689453125,1.3590178489685059,1.9883084297180176,3.061333179473877
1691674013239713800,6.2377138671875,1.3626279830932617,1.9167370796203613,2.9248383045196533
1691674013249760000,6.247760009765625,1.3262114524841309,1.7952255010604858,2.77519154548645
1691674013259805000,6.257804931640625,1.261438012123108,1.650998830795288,2.615917205810547
1691674013269849900,6.267849853515625,1.2026842832565308,1.5107660293579102,2.4551734924316406
1691674013279894800,6.277894775390625,1.1783360242843628,1.3809382915496826,2.2891950607299805
1691674013289940700,6.287940673828125,1.1615687608718872,1.261391520500183,2.1188528537750244
1691674013299986000,6.29798583984375,1.1518447399139404,1.1490674018859863,1.9531720876693726
1691674013310030800,6.30803076171875,1.1416822671890259,1.0558323860168457,1.7959275245666504
1691674013320075800,6.31807568359375,1.1286075115203857,0.9709727168083191,1.6442900896072388
1691674013330121700,6.328121826171875,1.1090221405029297,0.898241400718689,1.5097116231918335
1691674013340167000,6.3381669921875,1.0863988399505615,0.8501740097999573,1.3789770603179932
1691674013350211800,6.3482119140625,1.0807632207870483,0.8196817636489868,1.2658424377441406
1691674013360257000,6.358257080078125,1.088331937789917,0.7899920344352722,1.177626371383667
1691674013370303000,6.368302978515625,1.074959635734558,0.7147681713104248,1.0995906591415405
1691674013380348000,6.378347900390625,1.0370315313339233,0.5797216296195984,1.0139997005462646
1691674013390392800,6.388392822265625,0.9577613472938538,0.3874052166938782,0.8978089094161987
1691674013400437800,6.398437744140625,0.8325752019882202,0.15138201415538788,0.7394275069236755
1691674013410483500,6.4084833984375,0.6929967403411865,-0.10629737377166748,0.5250918865203857
1691674013420528400,6.4185283203125,0.6041656732559204,-0.34802213311195374,0.2776280343532562
1691674013430573300,6.4285732421875,0.5886338949203491,-0.5166197419166565,0.06618941575288773
1691674013440618200,6.4386181640625,0.6172248125076294,-0.6326278448104858,-0.07693897932767868
1691674013450664200,6.448664306640625,0.6595885753631592,-0.7391747236251831,-0.12276668846607208
1691674013460709400,6.45870947265625,0.6707240343093872,-0.8321174383163452,-0.11533647030591965
1691674013470754300,6.46875439453125,0.6403617858886719,-0.8979046940803528,-0.08549889922142029
1691674013480799500,6.478799560546875,0.5623159408569336,-0.9026331305503845,-0.046313412487506866
1691674013490845400,6.488845458984375,0.4248182475566864,-0.8437201380729675,0.00034726946614682674
1691674013500890400,6.498890380859375,0.22303080558776855,-0.7709993720054626,0.03627091646194458
1691674013510935300,6.508935302734375,0.021404625847935677,-0.670654833316803,0.07474681735038757
1691674013520980500,6.51898046875,-0.136320561170578,-0.5338215827941895,0.13257628679275513
1691674013531026400,6.5290263671875,-0.23852474987506866,-0.4508499801158905,0.19576285779476166
1691674013541071400,6.5390712890625,-0.31486189365386963,-0.4226425588130951,0.2384067326784134
1691674013551116300,6.5491162109375,-0.3723551630973816,-0.40035751461982727,0.20490026473999023
1691674013561161200,6.5591611328125,-0.3935869634151459,-0.36655721068382263,0.06637805700302124
1691674013571207200,6.569207275390625,-0.42270150780677795,-0.3196684718132019,-0.22264601290225983
1691674013581252400,6.57925244140625,-0.5051148533821106,-0.28536003828048706,-0.6313520073890686
1691674013591297300,6.58929736328125,-0.647774338722229,-0.289612352848053,-1.0690478086471558
1691674013601342500,6.599342529296875,-0.8297255039215088,-0.35871124267578125,-1.434269666671753
1691674013611388400,6.609388427734375,-1.0218489170074463,-0.38550812005996704,-1.647127389907837
1691674013621433300,6.619433349609375,-1.1971144676208496,-0.34139445424079895,-1.7157772779464722
1691674013631478300,6.629478271484375,-1.346704363822937,-0.26670214533805847,-1.6264158487319946
1691674013641524200,6.639524169921875,-1.4692517518997192,-0.19890844821929932,-1.3976918458938599
1691674013651569400,6.6495693359375,-1.5605382919311523,-0.13254113495349884,-1.0879532098770142
1691674013661614300,6.6596142578125,-1.6126537322998047,-0.06934379786252975,-0.7426967620849609
1691674013671659300,6.6696591796875,-1.6490002870559692,-0.0004024878144264221,-0.40368595719337463
1691674013681705200,6.679705322265625,-1.6920689344406128,0.07970140129327774,-0.10159293562173843
1691674013691750400,6.68975048828125,-1.7195154428482056,0.13956376910209656,0.14841358363628387
1691674013701795300,6.69979541015625,-1.7303662300109863,0.20128276944160461,0.33455923199653625
1691674013711840500,6.709840576171875,-1.7381733655929565,0.26316046714782715,0.440157026052475
1691674013721886500,6.719886474609375,-1.761629581451416,0.3012505769729614,0.4713706076145172
1691674013731931100,6.72993115234375,-1.7679774761199951,0.31204754114151,0.4393734037876129
1691674013741976300,6.739976318359375,-1.7572956085205078,0.2808043956756592,0.3770783543586731
1691674013752021200,6.750021240234375,-1.75773024559021,0.20821088552474976,0.2906099259853363
1691674013762067200,6.760067138671875,-1.7785449028015137,0.1241074725985527,0.17891240119934082
1691674013772112400,6.7701123046875,-1.8071240186691284,0.03727147355675697,0.03468387573957443
1691674013782157300,6.7801572265625,-1.8093804121017456,-0.07399885356426239,-0.13594165444374084
1691674013792202200,6.7902021484375,-1.7847269773483276,-0.20571042597293854,-0.29115697741508484
1691674013802248200,6.800248291015625,-1.7314666509628296,-0.3637344241142273,-0.40380123257637024
1691674013812293400,6.81029345703125,-1.661350131034851,-0.5515284538269043,-0.46456319093704224
1691674013822338300,6.82033837890625,-1.5772913694381714,-0.7322465777397156,-0.5025134682655334
1691674013832383500,6.830383544921875,-1.475640058517456,-0.8666356801986694,-0.5190284848213196
1691674013842429400,6.840429443359375,-1.354070782661438,-0.9412702322006226,-0.49926862120628357
1691674013852474000,6.85047412109375,-1.2339227199554443,-0.9762133955955505,-0.43917056918144226
1691674013862519300,6.860519287109375,-1.1080834865570068,-1.0046155452728271,-0.34000909328460693
1691674013872564200,6.870564208984375,-0.9874451160430908,-1.0417336225509644,-0.21980908513069153
1691674013882610400,6.8806103515625,-0.8840841054916382,-1.0512446165084839,-0.1106777936220169
1691674013892655400,6.8906552734375,-0.8042709231376648,-1.0349173545837402,-0.038031429052352905
1691674013902700500,6.900700439453125,-0.7524865865707397,-0.9963151216506958,-0.016256622970104218
1691674013912745200,6.9107451171875,-0.7383729815483093,-0.9374684691429138,-0.030916552990674973
1691674013922791200,6.920791259765625,-0.7276593446731567,-0.8467835783958435,-0.05791514739394188
1691674013932836400,6.93083642578125,-0.7072831988334656,-0.712220311164856,-0.06115427613258362
1691674013942881300,6.94088134765625,-0.6565015316009521,-0.5674266219139099,-0.013967853970825672
1691674013952926500,6.950926513671875,-0.6053412556648254,-0.41901782155036926,0.08350497484207153
1691674013962972400,6.960972412109375,-0.5964034199714661,-0.3015223443508148,0.1945987343788147
1691674013973017000,6.97101708984375,-0.5942027568817139,-0.2164272665977478,0.29187020659446716
1691674013983062300,6.981062255859375,-0.5711051821708679,-0.16535235941410065,0.3582092821598053
1691674013993108200,6.991108154296875,-0.5297854542732239,-0.12678277492523193,0.38916662335395813
1691674014003153400,7.0011533203125,-0.46720144152641296,-0.08617915958166122,0.3936021029949188
1691674014013198300,7.0111982421875,-0.39828962087631226,-0.06232030689716339,0.4085162281990051
1691674014023243500,7.021243408203125,-0.3347703218460083,-0.06213787943124771,0.4390283524990082
1691674014033289500,7.03128955078125,-0.27177396416664124,-0.05760713666677475,0.46843421459198
1691674014043334100,7.041334228515625,-0.2032703012228012,-0.05927081033587456,0.4956498444080353
1691674014053379300,7.05137939453125,-0.13558141887187958,-0.057527121156454086,0.520092248916626
1691674014063424300,7.06142431640625,-0.07576868683099747,-0.025996094569563866,0.548409640789032
1691674014073470500,7.071470458984375,-0.02322879433631897,0.035837579518556595,0.5799753069877625
1691674014083515400,7.081515380859375,0.036372750997543335,0.10488082468509674,0.6143777370452881
1691674014093560300,7.091560302734375,0.09719133377075195,0.19116561114788055,0.639579176902771
1691674014103605200,7.101605224609375,0.15421521663665771,0.28733423352241516,0.6487013101577759
1691674014113651200,7.111651123046875,0.21529628336429596,0.3848870098590851,0.6277548670768738
1691674014123696400,7.1216962890625,0.29118651151657104,0.5008311867713928,0.5952941179275513
1691674014133741300,7.1317412109375,0.3765055239200592,0.5985835194587708,0.5591687560081482
1691674014143786500,7.141786376953125,0.4442172050476074,0.6458069086074829,0.49628961086273193
1691674014153832400,7.15183251953125,0.49497291445732117,0.6530399322509766,0.39826205372810364
1691674014163877400,7.16187744140625,0.5275071263313293,0.6209053993225098,0.271478533744812
1691674014173922300,7.17192236328125,0.5242365598678589,0.5596396327018738,0.13245819509029388
1691674014183967200,7.18196728515625,0.5095598697662354,0.48800352215766907,0.010834023356437683
1691674014194013400,7.192013427734375,0.5109742283821106,0.4202330708503723,-0.065027616918087
1691674014204058400,7.202058349609375,0.5575137734413147,0.38281938433647156,-0.08516537398099899
1691674014214103300,7.212103271484375,0.6478232741355896,0.3949888348579407,-0.06177498772740364
1691674014224149200,7.222149169921875,0.7721402049064636,0.4557019770145416,-0.0462021566927433
1691674014234194200,7.232194091796875,0.9242175221443176,0.5490926504135132,-0.0860990434885025
1691674014244239400,7.2422392578125,1.0445765256881714,0.6119230389595032,-0.15339605510234833
1691674014254284300,7.2522841796875,1.063850998878479,0.6304960250854492,-0.18247254192829132
1691674014264330500,7.26233056640625,1.0079939365386963,0.6143612861633301,-0.14019432663917542
1691674014274375400,7.27237548828125,0.9408584237098694,0.5768635272979736,-0.061338502913713455
1691674014284420400,7.28242041015625,0.9159301519393921,0.535366415977478,0.013313896022737026
1691674014294465300,7.29246533203125,0.9813698530197144,0.519801914691925,0.06336376070976257
1691674014304511200,7.30251123046875,1.1254193782806396,0.5211201906204224,0.10042617470026016
1691674014314556400,7.312556396484375,1.311050534248352,0.5250416398048401,0.11801373213529587
1691674014324601300,7.322601318359375,1.5112956762313843,0.5468156337738037,0.11455002427101135
1691674014334646300,7.332646240234375,1.6739493608474731,0.625679075717926,0.08699758350849152
1691674014344692200,7.342692138671875,1.7790571451187134,0.7380236983299255,0.05716592073440552
1691674014354737400,7.3527373046875,1.8233022689819336,0.8594639301300049,0.07205939292907715
1691674014364782300,7.3627822265625,1.8706951141357422,0.9950454831123352,0.15254411101341248
1691674014374827300,7.3728271484375,1.9810153245925903,1.1129307746887207,0.2635459899902344
1691674014384873500,7.38287353515625,2.1437172889709473,1.1892095804214478,0.3674185872077942
1691674014394918400,7.39291845703125,2.286412477493286,1.2677850723266602,0.46167460083961487
1691674014404963300,7.40296337890625,2.3810768127441406,1.3493316173553467,0.561069905757904
1691674014415008300,7.41300830078125,2.456005573272705,1.4045376777648926,0.6635727286338806
1691674014425054200,7.42305419921875,2.549487829208374,1.4132461547851562,0.7588366866111755
1691674014435099400,7.433099365234375,2.6681880950927734,1.3587549924850464,0.8075612187385559
1691674014445144300,7.443144287109375,2.77008056640625,1.230281114578247,0.7894591689109802
1691674014455190500,7.4531904296875,2.824827194213867,0.9891330003738403,0.6734886765480042
1691674014465235200,7.463235107421875,2.877009868621826,0.6414937973022461,0.48725011944770813
1691674014475280400,7.4732802734375,2.964325189590454,0.21242815256118774,0.2645812928676605
1691674014485325300,7.4833251953125,3.097719669342041,-0.29678237438201904,0.038180913776159286
1691674014495371300,7.493371337890625,3.245882511138916,-0.8983831405639648,-0.21736352145671844
1691674014505416400,7.50341650390625,3.3864471912384033,-1.5144151449203491,-0.5065628886222839
1691674014515461400,7.51346142578125,3.530489921569824,-2.0949385166168213,-0.7849591374397278
1691674014525506300,7.52350634765625,3.677696704864502,-2.65207839012146,-1.0674262046813965
1691674014535552300,7.53355224609375,3.8024604320526123,-3.173219919204712,-1.32021164894104
1691674014545597400,7.543597412109375,3.895374059677124,-3.6488606929779053,-1.5137720108032227
1691674014555642400,7.553642333984375,4.018619537353516,-4.091948509216309,-1.6523795127868652
1691674014565687300,7.563687255859375,4.1614484786987305,-4.513765335083008,-1.6968634128570557
1691674014575733500,7.5737333984375,4.239206790924072,-4.848166465759277,-1.661837100982666
1691674014585778200,7.583778076171875,4.173927307128906,-4.977801322937012,-1.5602455139160156
1691674014595823400,7.5938232421875,4.017381191253662,-4.920833110809326,-1.3896855115890503
1691674014605868300,7.603868408203125,3.824249267578125,-4.777109146118164,-1.1938371658325195
1691674014615914200,7.613914306640625,3.6535139083862305,-4.573307514190674,-0.9789355397224426
1691674014625959400,7.62395947265625,3.526231050491333,-4.362941741943359,-0.756931483745575
1691674014636004000,7.634004150390625,3.3915398120880127,-4.1429829597473145,-0.5650345087051392
1691674014646050300,7.64405029296875,3.241800546646118,-3.919095754623413,-0.42538633942604065
1691674014656095200,7.65409521484375,3.1030385494232178,-3.7639665603637695,-0.3487628698348999
1691674014666140400,7.664140380859375,2.9965555667877197,-3.698695659637451,-0.2921086549758911
1691674014676185300,7.674185302734375,2.895468235015869,-3.718809127807617,-0.21235309541225433
1691674014686231300,7.684231201171875,2.7496752738952637,-3.7549288272857666,-0.0931159257888794
1691674014696276500,7.6942763671875,2.5241734981536865,-3.7377007007598877,-0.004933941178023815
1691674014706321200,7.704321044921875,2.248548984527588,-3.694268226623535,-0.016978086903691292
1691674014716366300,7.714366455078125,1.9885588884353638,-3.6894381046295166,-0.1141112819314003
1691674014726412300,7.724412353515625,1.8232407569885254,-3.6838150024414062,-0.2101781666278839
1691674014736457500,7.73445751953125,1.739982008934021,-3.641174554824829,-0.20575164258480072
1691674014746502400,7.74450244140625,1.6626099348068237,-3.535762310028076,-0.06151457875967026
1691674014756547300,7.75454736328125,1.5537242889404297,-3.3866631984710693,0.1635623425245285
1691674014766593300,7.76459326171875,1.4243383407592773,-3.276393175125122,0.37017542123794556
1691674014776638200,7.77463818359375,1.2943695783615112,-3.1881625652313232,0.478664755821228
1691674014786683400,7.784683349609375,1.1730072498321533,-3.063072443008423,0.4561693072319031
1691674014796728300,7.794728271484375,1.038475513458252,-2.871943712234497,0.34199804067611694
1691674014806774300,7.804774169921875,0.89862060546875,-2.5786046981811523,0.18442519009113312
1691674014816819500,7.8148193359375,0.7639273405075073,-2.2033894062042236,0.05119962617754936
1691674014826864000,7.824864013671875,0.6538903117179871,-1.7517355680465698,-0.008776356466114521
1691674014836910300,7.834910400390625,0.6137434840202332,-1.2922528982162476,-0.013202542439103127
1691674014846955300,7.844955322265625,0.6407407522201538,-0.9298382997512817,0.0014653492253273726
1691674014857000400,7.85500048828125,0.7002571821212769,-0.7299144864082336,0.02813752181828022
1691674014867045400,7.86504541015625,0.7721233367919922,-0.8048425316810608,0.03516161069273949
1691674014877091300,7.87509130859375,0.8032160401344299,-1.0649081468582153,0.026812445372343063
1691674014887136300,7.88513623046875,0.7265212535858154,-1.3693268299102783,0.008603613823652267
1691674014897181200,7.89518115234375,0.5664597153663635,-1.5983730554580688,-0.06473232060670853
1691674014907226400,7.905226318359375,0.4067310392856598,-1.6859660148620605,-0.2427244335412979
1691674014917272300,7.915272216796875,0.32994192838668823,-1.6161302328109741,-0.536435067653656
1691674014927317500,7.9253173828125,0.3514237701892853,-1.365735650062561,-0.8514776825904846
1691674014937362400,7.935362548828125,0.43793556094169617,-1.0307282209396362,-1.099822759628296
1691674014947408400,7.945408447265625,0.5385617613792419,-0.7212998270988464,-1.2279871702194214
1691674014957453300,7.955453369140625,0.6140480041503906,-0.5396053791046143,-1.2050122022628784
1691674014967498200,7.965498291015625,0.6772413849830627,-0.5370798707008362,-1.00861394405365
1691674014977543400,7.97554345703125,0.6661775708198547,-0.7416825890541077,-0.6988025307655334
1691674014987589400,7.98558935546875,0.5437014102935791,-1.04233980178833,-0.36113259196281433
1691674014997634300,7.99563427734375,0.3496481776237488,-1.226767897605896,-0.10061294585466385
1691674015007679200,8.00567919921875,0.17336076498031616,-1.2625155448913574,0.0024686981923878193
1691674015017724200,8.01572412109375,0.05632661655545235,-1.207320213317871,-0.05825573951005936
1691674015027770400,8.025770263671875,0.03827810660004616,-1.0928837060928345,-0.23682574927806854
1691674015037815300,8.035815185546875,0.11216522008180618,-0.9555031657218933,-0.4526694715023041
1691674015047860500,8.045860595703125,0.24370966851711273,-0.7885948419570923,-0.6040869355201721
1691674015057906400,8.055906494140626,0.35403239727020264,-0.6367055773735046,-0.6187247037887573
1691674015067951400,8.065951416015626,0.37282952666282654,-0.4938357472419739,-0.5109172463417053
1691674015077996300,8.075996337890626,0.3029932975769043,-0.3471686840057373,-0.29976508021354675
1691674015088041200,8.086041259765626,0.1970205307006836,-0.2483702003955841,-0.017828181385993958
1691674015098087400,8.09608740234375,0.08040868490934372,-0.22657479345798492,0.270403653383255
1691674015108132400,8.10613232421875,-0.021490244194865227,-0.18523187935352325,0.4715559482574463
1691674015118177500,8.116177490234374,-0.07994937151670456,-0.06151232495903969,0.5160383582115173
1691674015128222200,8.12622216796875,-0.0988125428557396,0.11670055240392685,0.39373084902763367
1691674015138268200,8.13626806640625,-0.07598187029361725,0.29315871000289917,0.17629538476467133
1691674015148313300,8.146313232421875,-0.03421258181333542,0.3967987895011902,-0.04248783364892006
1691674015158358300,8.156358154296875,0.003227769397199154,0.40251320600509644,-0.2025781124830246
1691674015168403500,8.166403564453125,0.0242379792034626,0.3552570343017578,-0.26723939180374146
1691674015178449400,8.176449462890625,0.02346031367778778,0.21302799880504608,-0.2287198305130005
1691674015188494300,8.186494384765625,-0.03200693801045418,-0.01010416354984045,-0.10634731501340866
1691674015198539300,8.196539306640625,-0.1458304077386856,-0.23602525889873505,0.03750096634030342
1691674015208585200,8.206585205078126,-0.23810361325740814,-0.3940092921257019,0.15332290530204773
1691674015218630400,8.21663037109375,-0.25477123260498047,-0.4220202565193176,0.21367309987545013
1691674015228675300,8.22667529296875,-0.20782528817653656,-0.3188086450099945,0.2414783537387848
1691674015238720500,8.236720458984376,-0.1506529301404953,-0.1305730789899826,0.2510823607444763
1691674015248766500,8.246766357421874,-0.09029904007911682,0.07635027170181274,0.2513774335384369
1691674015258811100,8.25681103515625,-0.01564927212893963,0.2269560545682907,0.22955425083637238
1691674015268856300,8.266856201171874,0.06379549205303192,0.25592511892318726,0.19289611279964447
1691674015278901200,8.2769013671875,0.12049594521522522,0.18884848058223724,0.14003300666809082
1691674015288947500,8.286947509765625,0.15802441537380219,0.08735940605401993,0.08965558558702469
1691674015298992400,8.296992431640625,0.1619264930486679,-0.09073534607887268,0.03827076777815819
1691674015309037300,8.307037353515625,0.11203884333372116,-0.30273813009262085,-0.008033080957829952
1691674015319083300,8.317083251953125,0.043584201484918594,-0.46228039264678955,-0.060554392635822296
1691674015329128200,8.327128173828125,-0.00014277314767241478,-0.5184414386749268,-0.13130846619606018
1691674015339173400,8.33717333984375,0.002160200383514166,-0.48689424991607666,-0.1978560835123062
1691674015349218300,8.34721826171875,0.03131728619337082,-0.37370991706848145,-0.24703481793403625
1691674015359264300,8.35726416015625,0.07744558155536652,-0.19292254745960236,-0.28401726484298706
1691674015369309400,8.367309326171876,0.1245313361287117,0.03127966448664665,-0.29978904128074646
1691674015379354000,8.37735400390625,0.16509293019771576,0.2042221575975418,-0.26851212978363037
1691674015389399300,8.3873994140625,0.1760755330324173,0.27757197618484497,-0.1866670846939087
1691674015399445200,8.3974453125,0.15941238403320312,0.2603881359100342,-0.06669531762599945
1691674015409490400,8.407490478515625,0.10707887262105942,0.13020430505275726,0.06749151647090912
1691674015419535400,8.417535400390625,0.007019151002168655,-0.062431700527668,0.16928614675998688
1691674015429581300,8.427581298828125,-0.11971615999937057,-0.20221224427223206,0.1947251856327057
1691674015439626500,8.43762646484375,-0.23088033497333527,-0.23531410098075867,0.13777250051498413
1691674015449671400,8.44767138671875,-0.29879918694496155,-0.1648428738117218,0.011676876805722713
1691674015459716600,8.457716552734375,-0.3351841866970062,-0.006535917520523071,-0.11516724526882172
1691674015469762600,8.467762451171875,-0.3414759039878845,0.21689344942569733,-0.2039107084274292
1691674015479807500,8.477807373046875,-0.3235708475112915,0.4569527506828308,-0.21341638267040253
1691674015489852400,8.487852294921876,-0.29830729961395264,0.6951869130134583,-0.13597218692302704
1691674015499897600,8.497897705078126,-0.25335660576820374,0.8081793785095215,-0.02069283463060856
1691674015509943600,8.507943603515624,-0.19834794104099274,0.7212809920310974,0.08131954818964005
1691674015519988500,8.517988525390624,-0.16751739382743835,0.509219229221344,0.12782253324985504
1691674015530033400,8.528033447265624,-0.15636567771434784,0.32821589708328247,0.07997139543294907
1691674015540079400,8.538079345703125,-0.1772252321243286,0.19542458653450012,-0.06828713417053223
1691674015550124300,8.548124267578125,-0.20747368037700653,0.07155084609985352,-0.27610132098197937
1691674015560169500,8.55816943359375,-0.24148708581924438,0.014215193688869476,-0.4967189431190491
1691674015570214400,8.56821435546875,-0.25852784514427185,0.10243959724903107,-0.7035996913909912
1691674015580260600,8.578260498046875,-0.24711467325687408,0.28665468096733093,-0.8379800915718079
1691674015590305500,8.588305419921875,-0.19742141664028168,0.4375523328781128,-0.8335752487182617
1691674015600350500,8.5983505859375,-0.13636651635169983,0.48334458470344543,-0.6640347242355347
1691674015610396400,8.608396484375,-0.09417858719825745,0.3896622955799103,-0.3725237548351288
1691674015620441300,8.61844140625,-0.10767176747322083,0.11239658296108246,-0.01647746004164219
1691674015630486500,8.628486572265626,-0.19486312568187714,-0.2507632374763489,0.3110799193382263
1691674015640531500,8.638531494140626,-0.3440616726875305,-0.5101697444915771,0.5080088973045349
1691674015650577700,8.64857763671875,-0.47965437173843384,-0.6340152621269226,0.5438190698623657
1691674015660622300,8.658622314453124,-0.5758598446846008,-0.6118137240409851,0.4760344624519348
1691674015670667500,8.66866748046875,-0.6151880621910095,-0.4609227180480957,0.37384819984436035
1691674015680712400,8.67871240234375,-0.6240699887275696,-0.22025001049041748,0.2866691052913666
1691674015690758400,8.68875830078125,-0.6101027727127075,0.06615246087312698,0.2536400556564331
1691674015700803600,8.698803466796875,-0.5788798332214355,0.38777390122413635,0.27871638536453247
1691674015710848500,8.7088486328125,-0.5350379347801208,0.7279337048530579,0.3500848114490509
1691674015720894500,8.71889453125,-0.4936214089393616,0.9968144297599792,0.45407670736312866
1691674015730939400,8.728939453125,-0.4681629240512848,1.1491639614105225,0.5298939347267151
1691674015740984300,8.738984375,-0.46987277269363403,1.2286128997802734,0.5391876697540283
1691674015751029500,8.749029541015625,-0.5004517436027527,1.2690945863723755,0.49217408895492554
1691674015761075500,8.759075439453126,-0.5804316401481628,1.300035834312439,0.4338393211364746
1691674015771120600,8.76912060546875,-0.7075709104537964,1.307092308998108,0.3933616578578949
1691674015781165300,8.779165283203126,-0.8466005921363831,1.2863576412200928,0.3870449364185333
1691674015791211300,8.789211181640624,-0.9589313864707947,1.2855829000473022,0.38699567317962646
1691674015801256400,8.79925634765625,-1.0307164192199707,1.3801958560943604,0.34820887446403503
1691674015811301400,8.80930126953125,-1.0654906034469604,1.593246579170227,0.26079991459846497
1691674015821346600,8.8193466796875,-1.0741420984268188,1.8238266706466675,0.180955171585083
1691674015831392500,8.829392578125,-1.0852712392807007,1.9946156740188599,0.16717463731765747
1691674015841437400,8.8394375,-1.1242516040802002,2.059035539627075,0.23555684089660645
1691674015851482400,8.849482421875,-1.1658775806427002,2.0749335289001465,0.4004794955253601
1691674015861527600,8.859527587890625,-1.2084765434265137,2.016043186187744,0.6460663676261902
1691674015871573500,8.869573486328125,-1.2586041688919067,1.8483288288116455,0.9108991026878357
1691674015881618400,8.879618408203125,-1.337268352508545,1.6441190242767334,1.1193079948425293
1691674015891663600,8.88966357421875,-1.43349289894104,1.445554256439209,1.1576119661331177
1691674015901709600,8.89970947265625,-1.5236537456512451,1.3010107278823853,0.9918509125709534
1691674015911754500,8.90975439453125,-1.5916951894760132,1.2543041706085205,0.6692798137664795
1691674015921799400,8.91979931640625,-1.6331366300582886,1.2800363302230835,0.3040376305580139
1691674015931844400,8.92984423828125,-1.6637052297592163,1.361460566520691,-0.004965749569237232
1691674015941890600,8.939890625,-1.700863242149353,1.5017364025115967,-0.18481643497943878
1691674015951935500,8.949935546875,-1.7828220129013062,1.7375707626342773,-0.2415899634361267
1691674015961980400,8.95998046875,-1.9085156917572021,2.0895917415618896,-0.2236812710762024
1691674015972026400,8.9700263671875,-2.0456998348236084,2.5071017742156982,-0.14342638850212097
1691674015982071300,8.9800712890625,-2.17769718170166,2.928936719894409,-0.016503831371665
1691674015992116500,8.990116455078125,-2.300522804260254,3.3272829055786133,0.11681721359491348
1691674016002161400,9.000161376953125,-2.407823085784912,3.683961868286133,0.2539156675338745
1691674016012207600,9.01020751953125,-2.4933457374572754,3.9582700729370117,0.39982038736343384
1691674016022252500,9.02025244140625,-2.582186698913574,4.150541305541992,0.5693894624710083
1691674016032297500,9.03029736328125,-2.7685303688049316,4.302814483642578,0.7105886340141296
1691674016042343400,9.040343505859376,-3.0535497665405273,4.402266979217529,0.7322184443473816
1691674016052388400,9.050388427734376,-3.346036434173584,4.447646141052246,0.6089096069335938
1691674016062433500,9.06043359375,-3.5871942043304443,4.40939998626709,0.3826431334018707
1691674016072478500,9.070478515625,-3.784564256668091,4.295144557952881,0.10787839442491531
1691674016082524400,9.0805244140625,-3.8947083950042725,4.069477081298828,-0.14245353639125824
1691674016092569300,9.0905693359375,-3.843493700027466,3.858140707015991,-0.25746774673461914
1691674016102614500,9.100614501953125,-3.626370429992676,3.7652764320373535,-0.16075551509857178
1691674016112659500,9.110659423828125,-3.3132660388946533,3.7219769954681396,0.1346026360988617
1691674016122705400,9.120705322265625,-3.0020835399627686,3.6827690601348877,0.5473334789276123
1691674016132750600,9.13075048828125,-2.7649447917938232,3.5744471549987793,0.9244037866592407
1691674016142795500,9.14079541015625,-2.6117916107177734,3.443601131439209,1.1650161743164062
1691674016152841500,9.150841552734375,-2.5869193077087402,3.322314739227295,1.2657246589660645
1691674016162886400,9.160886474609375,-2.6619873046875,3.1986212730407715,1.2569493055343628
1691674016172931300,9.170931396484375,-2.76343035697937,3.034325361251831,1.218457818031311
1691674016182976500,9.1809765625,-2.8538355827331543,2.7871389389038086,1.175703525543213
1691674016193022500,9.1910224609375,-2.885122776031494,2.482473134994507,1.1015286445617676
1691674016203067600,9.201067626953124,-2.8459179401397705,2.1498754024505615,0.9616262316703796
1691674016213112300,9.2111123046875,-2.7456462383270264,1.8055797815322876,0.8167380094528198
1691674016223157500,9.221157470703124,-2.5979068279266357,1.4039732217788696,0.6596957445144653
1691674016233203500,9.231203369140625,-2.4636244773864746,0.9960396885871887,0.4562520682811737
1691674016243248400,9.241248291015625,-2.3647260665893555,0.6419820785522461,0.16710087656974792
1691674016253293600,9.25129345703125,-2.343804359436035,0.29074254631996155,-0.17396801710128784
1691674016263339500,9.261339599609375,-2.4224305152893066,-0.10948790609836578,-0.5437231659889221
1691674016273384400,9.271384521484375,-2.610755205154419,-0.5054370760917664,-0.9075218439102173
1691674016283429400,9.281429443359375,-2.8492283821105957,-0.8750831484794617,-1.2303447723388672
1691674016293474600,9.291474609375,-3.081409215927124,-1.1767958402633667,-1.4896655082702637
1691674016303520500,9.3015205078125,-3.2896511554718018,-1.3723504543304443,-1.6901792287826538
1691674016313565400,9.3115654296875,-3.4444351196289062,-1.4710479974746704,-1.8389580249786377
1691674016323610600,9.321610595703126,-3.503009080886841,-1.478280782699585,-1.9293125867843628
1691674016333656600,9.331656494140624,-3.4474236965179443,-1.396101474761963,-1.929319977760315
1691674016343701200,9.341701171875,-3.3281493186950684,-1.245671033859253,-1.8542400598526
1691674016353746400,9.351746337890624,-3.186633825302124,-1.0163710117340088,-1.7413254976272583
1691674016363791400,9.361791259765624,-3.037632703781128,-0.7413215637207031,-1.6071523427963257
1691674016373837600,9.371837646484375,-2.865119695663452,-0.45357897877693176,-1.459322452545166
1691674016383882500,9.381882568359375,-2.703134536743164,-0.18993808329105377,-1.274915337562561
1691674016393927400,9.391927490234375,-2.57651424407959,-0.004705917555838823,-1.044110655784607
1691674016403973400,9.401973388671875,-2.4770078659057617,0.10977941751480103,-0.8020226359367371
1691674016414019300,9.412019287109375,-2.3761186599731445,0.19659528136253357,-0.569210946559906
1691674016424064500,9.422064453125,-2.2360918521881104,0.23676422238349915,-0.344194233417511
1691674016434109200,9.432109130859375,-2.0295798778533936,0.22475574910640717,-0.14471814036369324
1691674016444155100,9.442155029296876,-1.7653847932815552,0.16664890944957733,0.0426359660923481
1691674016454200300,9.452200439453126,-1.4577417373657227,0.07480288296937943,0.20383256673812866
1691674016464245200,9.462245361328126,-1.0826847553253174,-0.05415280908346176,0.3205646276473999
1691674016474291200,9.472291259765624,-0.6693196892738342,-0.222558856010437,0.3887980282306671
1691674016484336400,9.48233642578125,-0.2603372633457184,-0.39600610733032227,0.40840643644332886
1691674016494381300,9.49238134765625,0.09702754765748978,-0.5454739332199097,0.36251217126846313
1691674016504426200,9.50242626953125,0.3613334000110626,-0.6878976821899414,0.2698018550872803
1691674016514472200,9.51247216796875,0.5043307542800903,-0.8470165133476257,0.17290382087230682
1691674016524517400,9.522517333984375,0.5769736170768738,-0.9727408289909363,0.0963917076587677
1691674016534562300,9.532562255859375,0.5953227877616882,-1.0672420263290405,0.07224669307470322
1691674016544608300,9.542608154296875,0.5651187300682068,-1.1315035820007324,0.07736331969499588
1691674016554653400,9.5526533203125,0.5058923959732056,-1.1375420093536377,0.08791929483413696
1691674016564698000,9.562697998046875,0.45587149262428284,-1.0731494426727295,0.08704192191362381
1691674016574743300,9.572743408203126,0.42458707094192505,-0.9392470717430115,0.09208674728870392
1691674016584789200,9.582789306640626,0.4058001637458801,-0.7752419114112854,0.12832126021385193
1691674016594834400,9.59283447265625,0.39866742491722107,-0.5977323651313782,0.19485953450202942
1691674016604879400,9.60287939453125,0.4100648760795593,-0.3912641108036041,0.26263105869293213
1691674016614925300,9.61292529296875,0.42464539408683777,-0.1497393548488617,0.32244300842285156
1691674016624970500,9.622970458984375,0.43489870429039,0.11536706984043121,0.3733362555503845
1691674016635015200,9.63301513671875,0.4456418752670288,0.35561642050743103,0.43674612045288086
1691674016645060400,9.643060302734375,0.40658649802207947,0.488419771194458,0.5307245850563049
1691674016655106300,9.653106201171875,0.34333324432373047,0.5772676467895508,0.6595166325569153
1691674016665151200,9.663151123046875,0.2810405194759369,0.6471624374389648,0.8155460953712463
1691674016675196400,9.673196533203125,0.22101259231567383,0.6892589926719666,0.9818868637084961
1691674016685242400,9.683242431640625,0.16219933331012726,0.7157881259918213,1.1284267902374268
1691674016695287300,9.693287353515625,0.11773733049631119,0.7830896377563477,1.2209540605545044
1691674016705332200,9.703332275390625,0.1042020320892334,0.8840120434761047,1.2612804174423218
1691674016715377400,9.71337744140625,0.11858443170785904,1.0059611797332764,1.2913964986801147
1691674016725423400,9.72342333984375,0.1711684763431549,1.1298320293426514,1.3091305494308472
1691674016735468300,9.73346826171875,0.25200632214546204,1.2497013807296753,1.3161526918411255
1691674016745513500,9.743513427734374,0.3389299213886261,1.3568295240402222,1.3052524328231812
1691674016755559400,9.753559326171874,0.4179973006248474,1.4482589960098267,1.2905858755111694
1691674016765604400,9.763604248046875,0.49891889095306396,1.5274608135223389,1.2766942977905273
1691674016775649300,9.773649169921875,0.5743718147277832,1.5749537944793701,1.2513465881347656
1691674016785694500,9.783694580078125,0.6276841163635254,1.5931410789489746,1.2283376455307007
1691674016795740400,9.793740478515625,0.6549628376960754,1.5837651491165161,1.2164220809936523
1691674016805785300,9.803785400390625,0.6396754384040833,1.570173740386963,1.2082242965698242
1691674016815830300,9.813830322265625,0.6227331757545471,1.5383877754211426,1.198913812637329
1691674016825875200,9.823875244140625,0.6571714282035828,1.5210798978805542,1.1668190956115723
1691674016835921400,9.83392138671875,0.7191839218139648,1.5668745040893555,1.0977436304092407
1691674016845966300,9.84396630859375,0.8073832988739014,1.6685148477554321,1.0309137105941772
1691674016856011300,9.85401123046875,0.9634818434715271,1.7888973951339722,0.9899879097938538
1691674016866057500,9.864057373046874,1.2047035694122314,1.8757414817810059,0.9702172875404358
1691674016876102100,9.87410205078125,1.5146899223327637,1.8836067914962769,0.9533357620239258
1691674016886147300,9.884147216796874,1.8640239238739014,1.8150063753128052,0.913411021232605
1691674016896192300,9.894192138671874,2.2070515155792236,1.6855791807174683,0.8150128126144409
1691674016906238200,9.90423828125,2.476776361465454,1.4862388372421265,0.6591214537620544
1691674016916283400,9.914283447265625,2.645310401916504,1.2110298871994019,0.5003810524940491
1691674016926328300,9.924328369140625,2.709131956100464,0.8371220827102661,0.41843345761299133
1691674016936374500,9.93437451171875,2.6568100452423096,0.320537805557251,0.4689437747001648
1691674016946419200,9.944419189453125,2.5658140182495117,-0.31779032945632935,0.6553888916969299
1691674016956464400,9.95446435546875,2.4967830181121826,-0.9979313015937805,0.8676968812942505
1691674016966509300,9.96450927734375,2.537329912185669,-1.5567433834075928,1.0076881647109985
1691674016976555300,9.97455517578125,2.7767019271850586,-1.940788984298706,1.0466797351837158
1691674016986600400,9.984600341796876,3.1595911979675293,-2.1531476974487305,1.0089937448501587
1691674016996645000,9.99464501953125,3.541128635406494,-2.170100688934326,0.9443071484565735
1691674017006691300,10.00469140625,3.844352960586548,-2.1290433406829834,0.8934352397918701
1691674017016736300,10.014736328125,4.088547229766846,-2.1418421268463135,0.8554926514625549
1691674017026781400,10.024781494140624,4.297917366027832,-2.254467010498047,0.846699059009552
1691674017036826400,10.034826416015624,4.453787803649902,-2.514674425125122,0.9004507064819336
1691674017046872300,10.044872314453125,4.514739036560059,-2.9117207527160645,0.9871008992195129
1691674017056917500,10.05491748046875,4.443922996520996,-3.393003225326538,1.0971843004226685
1691674017066962200,10.064962158203125,4.308818340301514,-3.9766528606414795,1.2132307291030884
1691674017077008100,10.075008056640625,4.244969367980957,-4.593529224395752,1.3069063425064087
1691674017087053300,10.08505322265625,4.22405481338501,-5.133178234100342,1.3267312049865723
1691674017097098200,10.09509814453125,4.1806640625,-5.538018703460693,1.2209274768829346
1691674017107143400,10.105143310546875,4.080686569213867,-5.847123146057129,1.0323623418807983
1691674017117189400,10.115189453125,3.93790864944458,-6.003352165222168,0.8573868870735168
1691674017127234300,10.125234375,3.751678705215454,-5.962136268615723,0.8216160535812378
1691674017137279200,10.135279296875,3.506047248840332,-5.748870849609375,0.9096665382385254
1691674017147325200,10.1453251953125,3.1894943714141846,-5.475325584411621,1.053758144378662
1691674017157370400,10.155370361328124,2.8431055545806885,-5.199987411499023,1.2125035524368286
1691674017167415300,10.165415283203124,2.451841115951538,-4.986447334289551,1.3533530235290527
1691674017177460500,10.17546044921875,2.003117799758911,-4.811910629272461,1.4715622663497925
1691674017187506400,10.18550634765625,1.584165334701538,-4.668911933898926,1.5807905197143555
1691674017197551400,10.19555126953125,1.2762120962142944,-4.617343902587891,1.68743097782135
1691674017207596300,10.20559619140625,1.0705270767211914,-4.602797031402588,1.7901071310043335
1691674017217642200,10.215642333984375,0.9056872129440308,-4.5635294914245605,1.85605788230896
1691674017227687400,10.2256875,0.7663769125938416,-4.469036102294922,1.8415817022323608
1691674017237732400,10.235732421875,0.6166702508926392,-4.290972709655762,1.7178860902786255
1691674017247778300,10.2457783203125,0.4300735592842102,-4.052896022796631,1.4880926609039307
1691674017257823200,10.2558232421875,0.214682936668396,-3.7621994018554688,1.186049461364746
1691674017267868200,10.2658681640625,-0.017486782744526863,-3.4517757892608643,0.8831910490989685
1691674017277913300,10.275913330078126,-0.2460307478904724,-3.2215702533721924,0.6399738788604736
1691674017287959300,10.285959228515624,-0.43208932876586914,-3.07873797416687,0.5106170773506165
1691674017298004500,10.29600439453125,-0.5446653962135315,-2.9917550086975098,0.5207580924034119
1691674017308049400,10.30604931640625,-0.5772120356559753,-2.9740729331970215,0.6668594479560852
1691674017318095400,10.316095458984375,-0.5865600109100342,-2.9701435565948486,0.8907013535499573
1691674017328140300,10.326140380859375,-0.6073042154312134,-2.9692680835723877,1.0899653434753418
1691674017338185200,10.336185302734375,-0.6431490778923035,-2.9192426204681396,1.1734917163848877
1691674017348230400,10.34623046875,-0.6970450282096863,-2.7534022331237793,1.0797673463821411
1691674017358276400,10.3562763671875,-0.7478554844856262,-2.4784412384033203,0.8170986175537109
1691674017368321500,10.366321533203125,-0.767516553401947,-2.1603705883026123,0.4424722492694855
1691674017378366200,10.3763662109375,-0.7886242270469666,-1.8769397735595703,0.06779345124959946
1691674017388412200,10.386412109375,-0.850411057472229,-1.684262990951538,-0.1904248595237732
1691674017398457300,10.396457275390626,-0.966302752494812,-1.5445610284805298,-0.2732582092285156
1691674017408502300,10.406502197265626,-1.0494343042373657,-1.4464912414550781,-0.20932236313819885
1691674017418547700,10.416547607421874,-1.0531328916549683,-1.438278079032898,-0.02979334257543087
1691674017428593700,10.42659375,-1.0425390005111694,-1.4549221992492676,0.20010097324848175
1691674017438638600,10.436638671875,-1.037251591682434,-1.4490573406219482,0.37834182381629944
1691674017448683500,10.44668359375,-0.9947037100791931,-1.395609736442566,0.42569175362586975
1691674017458729500,10.4567294921875,-0.9332067966461182,-1.2400497198104858,0.3533349931240082
1691674017468774700,10.466774658203125,-0.8743123412132263,-1.009660005569458,0.18148043751716614
1691674017478819600,10.476819580078125,-0.8176757097244263,-0.7800894379615784,-0.06316658854484558
1691674017488864800,10.48686474609375,-0.7911961674690247,-0.605884313583374,-0.25863972306251526
1691674017498910700,10.49691064453125,-0.815676212310791,-0.5580863952636719,-0.3343677520751953
1691674017508955400,10.506955322265625,-0.8541180491447449,-0.6219218969345093,-0.29998254776000977
1691674017519000600,10.51700048828125,-0.8919637203216553,-0.7854042649269104,-0.1736898571252823
1691674017529046500,10.527046630859376,-0.9679451584815979,-0.931471049785614,-0.0024663410149514675
1691674017539091700,10.537091796875,-1.0588245391845703,-0.9549720883369446,0.16980423033237457
1691674017549136600,10.54713671875,-1.1126362085342407,-0.8086248636245728,0.2628781497478485
1691674017559182600,10.5571826171875,-1.1186707019805908,-0.5179392099380493,0.2425086796283722
1691674017569227800,10.567227783203125,-1.063435435295105,-0.16729897260665894,0.1305311918258667
1691674017579272400,10.5772724609375,-0.932451069355011,0.12640269100666046,-0.04023654758930206
1691674017589317600,10.587317626953125,-0.7906398177146912,0.290706604719162,-0.21471990644931793
1691674017599363600,10.597363525390625,-0.6856846213340759,0.36450624465942383,-0.3602781593799591
1691674017609408500,10.607408447265625,-0.6239013671875,0.37012016773223877,-0.4738437533378601
1691674017619453700,10.61745361328125,-0.6092132329940796,0.3182295262813568,-0.5322133302688599
1691674017629499600,10.627499755859375,-0.6523545384407043,0.20757494866847992,-0.5549671649932861
1691674017639544600,10.637544677734375,-0.7352433204650879,0.11106517910957336,-0.579557478427887
1691674017649589500,10.647589599609375,-0.8080064058303833,0.102726511657238,-0.6185263395309448
1691674017659634700,10.657634765625,-0.8766770362854004,0.18130335211753845,-0.6243506669998169
1691674017669680600,10.6676806640625,-0.9603790640830994,0.30615511536598206,-0.5508309602737427
1691674017679725600,10.6777255859375,-1.0547691583633423,0.4518342912197113,-0.3912242650985718
1691674017689770500,10.6877705078125,-1.1552881002426147,0.6121683716773987,-0.15860864520072937
1691674017699816400,10.69781640625,-1.256058931350708,0.7480170130729675,0.09786256402730942
1691674017709861600,10.707861572265625,-1.3508293628692627,0.9301801323890686,0.3456399142742157
1691674017719906600,10.717906494140625,-1.4502323865890503,1.1778322458267212,0.5883502960205078
1691674017729952500,10.727952392578125,-1.5623096227645874,1.498130202293396,0.843220591545105
1691674017739997700,10.737997802734375,-1.6750199794769287,1.8570326566696167,1.1093246936798096
1691674017750042600,10.748042724609375,-1.7755874395370483,2.1779141426086426,1.3729350566864014
1691674017760087600,10.758087646484375,-1.9061843156814575,2.4172134399414062,1.5956997871398926
1691674017770133500,10.768133544921875,-2.0936644077301025,2.6018152236938477,1.7522574663162231
1691674017780178400,10.778178466796875,-2.3446033000946045,2.7503838539123535,1.8111793994903564
1691674017790223600,10.7882236328125,-2.6458189487457275,2.8671958446502686,1.67122483253479
1691674017800269600,10.79826953125,-2.952181577682495,2.9429471492767334,1.2795534133911133
1691674017810314800,10.808314697265626,-3.243746280670166,2.938871383666992,0.7820650339126587
1691674017820359400,10.818359375,-3.5009701251983643,2.8650150299072266,0.3917657434940338
1691674017830405400,10.8284052734375,-3.729123115539551,2.8240621089935303,0.20103727281093597
1691674017840450600,10.838450439453124,-3.9176785945892334,3.0084800720214844,0.25195053219795227
1691674017850495500,10.84849560546875,-4.047187328338623,3.4595789909362793,0.5822979211807251
1691674017860540700,10.858540771484375,-4.162160396575928,3.9780571460723877,1.1483654975891113
1691674017870586600,10.868586669921875,-4.369898319244385,4.396449089050293,1.7430578470230103
1691674017880631800,10.8786318359375,-4.704550743103027,4.74192476272583,2.0555944442749023
1691674017890676500,10.888676513671875,-5.060725688934326,5.079519271850586,1.9381096363067627
1691674017900722400,10.898722412109375,-5.396939754486084,5.361385345458984,1.5105310678482056
1691674017910767600,10.908767578125,-5.677158832550049,5.422295570373535,1.0618458986282349
1691674017920812500,10.9188125,-5.818978309631348,5.209012508392334,0.8436616063117981
1691674017930857700,10.928857666015626,-5.748421669006348,4.845632553100586,0.9739132523536682
1691674017940903700,10.938903564453126,-5.482781887054443,4.464444637298584,1.456116795539856
1691674017950948400,10.9489482421875,-5.147271156311035,4.004603862762451,2.14247465133667
1691674017960993500,10.95899365234375,-4.9048614501953125,3.397761344909668,2.7368667125701904
1691674017971039500,10.96903955078125,-4.689284324645996,2.7490251064300537,3.0518951416015625
1691674017981084700,10.979084716796875,-4.447310924530029,2.1524505615234375,3.1550395488739014
1691674017991129600,10.989129638671875,-4.26167106628418,1.6820980310440063,3.1267502307891846
1691674018001174800,10.9991748046875,-4.192110538482666,1.4644713401794434,3.041395902633667
1691674018011220700,11.009220703125,-4.260540962219238,1.5108764171600342,2.961954116821289
1691674018021265400,11.019265380859375,-4.43428897857666,1.704084038734436,2.952845335006714
1691674018031310600,11.029310546875,-4.681014537811279,1.8851094245910645,2.9556431770324707
1691674018041356500,11.0393564453125,-4.868833065032959,2.023837089538574,2.9083845615386963
1691674018051401700,11.049401611328125,-4.865478038787842,2.096911907196045,2.8702456951141357
1691674018061446700,11.05944677734375,-4.6527533531188965,2.1157619953155518,2.919713020324707
1691674018071492600,11.06949267578125,-4.278474807739258,2.093642234802246,3.1291980743408203
1691674018081537500,11.07953759765625,-3.8407974243164062,2.0028603076934814,3.467341423034668
1691674018091582500,11.08958251953125,-3.4167299270629883,1.8633968830108643,3.8152413368225098
1691674018101627600,11.099627685546874,-3.065330982208252,1.7231241464614868,4.026760101318359
1691674018111673600,11.109673583984375,-2.7726004123687744,1.5886197090148926,4.031515121459961
1691674018121718500,11.119718505859375,-2.5468087196350098,1.4835593700408936,3.828032970428467
1691674018131763500,11.129763427734375,-2.401782274246216,1.343270182609558,3.468447208404541
1691674018141809400,11.139809326171875,-2.287536859512329,1.1404814720153809,3.038170099258423
1691674018151854600,11.1498544921875,-2.1537716388702393,0.8758337497711182,2.596395969390869
1691674018161899500,11.1598994140625,-1.96952223777771,0.6052755117416382,2.188934803009033
1691674018171945500,11.169945556640625,-1.7470935583114624,0.4257989525794983,1.8751583099365234
1691674018181990700,11.17999072265625,-1.5016601085662842,0.31205055117607117,1.6648309230804443
1691674018192035600,11.19003564453125,-1.2550714015960693,0.22155000269412994,1.4976177215576172
1691674018202080500,11.20008056640625,-1.0081225633621216,0.18218475580215454,1.3585946559906006
1691674018212126500,11.21012646484375,-0.7670203447341919,0.1981028914451599,1.2305850982666016
1691674018222171600,11.220171630859374,-0.5419830083847046,0.25320637226104736,1.1353979110717773
1691674018232216600,11.230216552734374,-0.33922499418258667,0.31943684816360474,1.0516437292099
1691674018242262500,11.240262451171875,-0.13789589703083038,0.34402263164520264,0.96897953748703
1691674018252307700,11.2503076171875,0.0490199439227581,0.3437550365924835,0.8944339752197266
1691674018262352400,11.260352294921875,0.20868471264839172,0.3621841073036194,0.8408253192901611
1691674018272398600,11.270398681640625,0.3277903199195862,0.377299427986145,0.8016625046730042
1691674018282443500,11.280443603515625,0.4259229600429535,0.3690364956855774,0.7785588502883911
1691674018292488400,11.290488525390625,0.5058845281600952,0.3623049259185791,0.7716017961502075
1691674018302533600,11.30053369140625,0.5513260364532471,0.3949621915817261,0.7900340557098389
1691674018312579600,11.31057958984375,0.5739492774009705,0.4677688777446747,0.8481489419937134
1691674018322624800,11.320624755859376,0.6020475029945374,0.5466905832290649,0.9402072429656982
1691674018332669400,11.33066943359375,0.6253562569618225,0.634027898311615,1.0684967041015625
1691674018342715400,11.34071533203125,0.6472471356391907,0.7509239315986633,1.1950727701187134
1691674018352760600,11.350760498046874,0.6902112364768982,0.8779102563858032,1.320077896118164
1691674018362805500,11.360805419921874,0.7269290685653687,0.9961020946502686,1.4197075366973877
1691674018372850700,11.3708505859375,0.7552944421768188,1.1012153625488281,1.492904782295227
1691674018382896600,11.380896728515625,0.7847623229026794,1.191199541091919,1.5321893692016602
1691674018392941600,11.390941650390625,0.8270056843757629,1.2653745412826538,1.5435469150543213
1691674018402986500,11.400986572265625,0.8629721999168396,1.309604287147522,1.5273303985595703
1691674018413031700,11.41103173828125,0.8777093291282654,1.3077200651168823,1.4788622856140137
1691674018423076400,11.421076416015625,0.880633533000946,1.2826144695281982,1.3933568000793457
1691674018433121500,11.43112158203125,0.8912212252616882,1.2500793933868408,1.2889196872711182
1691674018443167500,11.44116748046875,0.9008016586303711,1.1711840629577637,1.1846033334732056
1691674018453212400,11.45121240234375,0.8906353116035461,1.058702826499939,1.0661280155181885
1691674018463257600,11.461257568359375,0.8619993925094604,0.9458776712417603,0.9539609551429749
1691674018473302500,11.471302490234375,0.8141292929649353,0.823289155960083,0.858342707157135
1691674018483348700,11.4813486328125,0.7561101913452148,0.706501305103302,0.7870491147041321
1691674018493393400,11.491393310546876,0.6903954148292542,0.5883837938308716,0.761959433555603
1691674018503438600,11.5014384765625,0.6174327731132507,0.4983654320240021,0.7824156880378723
1691674018513484500,11.511484619140624,0.5513625741004944,0.4768783152103424,0.8092252612113953
1691674018523529500,11.521529541015624,0.4849265515804291,0.5149543285369873,0.8248598575592041
1691674018533574700,11.53157470703125,0.41937872767448425,0.5871337652206421,0.8318318128585815
1691674018543619300,11.541619384765625,0.36171916127204895,0.6789246797561646,0.833594799041748
1691674018553665300,11.551665283203125,0.313812255859375,0.7928563356399536,0.8429850935935974
1691674018563710500,11.56171044921875,0.26654618978500366,0.87763911485672,0.8567296862602234
1691674018573755400,11.57175537109375,0.21055376529693604,0.9195697903633118,0.863472580909729
1691674018583801600,11.581801513671875,0.179982528090477,0.9433979392051697,0.8700465559959412
1691674018593846500,11.591846435546875,0.16801877319812775,0.9403260350227356,0.8562279939651489
1691674018603891700,11.6018916015625,0.14039114117622375,0.8976206183433533,0.8362529277801514
1691674018613937400,11.6119375,0.11158764362335205,0.8154084086418152,0.7911635041236877
1691674018623982300,11.621982421875,0.09069168567657471,0.7163736820220947,0.709783673286438
1691674018634027500,11.632027587890626,0.08951085805892944,0.6144771575927734,0.5756664276123047
1691674018644073500,11.642073486328124,0.1174388974905014,0.48730769753456116,0.40835168957710266
1691674018654118700,11.65211865234375,0.15946699678897858,0.35425442457199097,0.23038533329963684
1691674018664163600,11.66216357421875,0.19111546874046326,0.23697493970394135,0.04664425924420357
1691674018674208500,11.67220849609375,0.21312372386455536,0.12603147327899933,-0.14873799681663513
1691674018684254500,11.68225439453125,0.18135301768779755,0.0004666219465434551,-0.3371635675430298
1691674018694299400,11.69229931640625,0.06552194803953171,-0.14061853289604187,-0.48636704683303833
1691674018704344600,11.702344482421875,-0.09586960077285767,-0.24621260166168213,-0.5778119564056396
1691674018714390500,11.712390625,-0.23872843384742737,-0.30754339694976807,-0.5830164551734924
1691674018724435500,11.722435546875,-0.3206515312194824,-0.341022253036499,-0.5050327181816101
1691674018734480400,11.73248046875,-0.34947070479393005,-0.372008353471756,-0.36156171560287476
1691674018744525300,11.742525390625,-0.34345516562461853,-0.39914169907569885,-0.19397138059139252
1691674018754571500,11.752571533203126,-0.32157984375953674,-0.4251052737236023,-0.04504960775375366
1691674018764616400,11.762616455078126,-0.26416340470314026,-0.460725337266922,0.02458912320435047
1691674018774661600,11.77266162109375,-0.17200255393981934,-0.49411603808403015,-0.007458653301000595
1691674018784707600,11.78270751953125,-0.06021716445684433,-0.5206019878387451,-0.13993467390537262
1691674018794752500,11.79275244140625,0.027686836197972298,-0.5442087054252625,-0.30988815426826477
1691674018804797400,11.80279736328125,0.06495271623134613,-0.5859907865524292,-0.45403891801834106
1691674018814843400,11.812843505859375,0.04448847845196724,-0.6768297553062439,-0.5275400876998901
1691674018824888600,11.822888671875,0.0010129085276275873,-0.7521072030067444,-0.5423797965049744
1691674018834933500,11.83293359375,-0.04403093084692955,-0.7762218117713928,-0.5091835260391235
1691674018844979500,11.8429794921875,-0.09023677557706833,-0.7648671865463257,-0.43681132793426514
1691674018855024600,11.853024658203125,-0.12654566764831543,-0.71922767162323,-0.3206902742385864
1691674018865069300,11.8630693359375,-0.14853325486183167,-0.624273419380188,-0.17785803973674774
1691674018875114500,11.873114501953125,-0.16797101497650146,-0.47779759764671326,-0.024066222831606865
1691674018885160400,11.883160400390626,-0.18462029099464417,-0.2947465479373932,0.1358933448791504
1691674018895205400,11.893205322265626,-0.20214587450027466,-0.09970685094594955,0.30401235818862915
1691674018905250600,11.90325048828125,-0.2248690277338028,0.09081995487213135,0.48154136538505554
1691674018915296500,11.913296630859374,-0.2578262984752655,0.26986971497535706,0.6510921120643616
1691674018925341700,11.923341796875,-0.2949153482913971,0.42684438824653625,0.7974463701248169
1691674018935386400,11.933386474609375,-0.3200085461139679,0.5498747825622559,0.9092123508453369
1691674018945432300,11.943432373046875,-0.3206615447998047,0.6486825942993164,1.0003868341445923
1691674018955477500,11.9534775390625,-0.29589635133743286,0.7058154344558716,1.0676920413970947
1691674018965522400,11.9635224609375,-0.2713305354118347,0.7054774761199951,1.1042938232421875
1691674018975567600,11.973567626953125,-0.23899760842323303,0.6540350317955017,1.0885019302368164
1691674018985613600,11.983613525390625,-0.20132559537887573,0.57639479637146,1.0121434926986694
1691674018995658500,11.993658447265625,-0.15579436719417572,0.461026132106781,0.8978715538978577
1691674019005703400,12.003703369140625,-0.1289997696876526,0.3166140913963318,0.7558387517929077
1691674019015749400,12.013749267578126,-0.10727781057357788,0.168079674243927,0.5950450897216797
1691674019025794600,12.023794677734376,-0.10324472188949585,0.03303450345993042,0.4405260682106018
1691674019035839500,12.033839599609376,-0.10825545340776443,-0.09511657059192657,0.3024938404560089
1691674019045885400,12.043885498046874,-0.11598341166973114,-0.19178132712841034,0.2084144651889801
1691674019055930400,12.053930419921874,-0.11494804918766022,-0.23585045337677002,0.17740076780319214
1691674019065975600,12.0639755859375,-0.1050911545753479,-0.21635745465755463,0.195977121591568
1691674019076020500,12.0740205078125,-0.08875279128551483,-0.15932011604309082,0.25472643971443176
1691674019086066400,12.08406640625,-0.07939417660236359,-0.08660516887903214,0.3273196816444397
1691674019096111600,12.094111572265625,-0.07222189009189606,-0.010166195221245289,0.4037761092185974
1691674019106156500,12.104156494140625,-0.06561671942472458,0.0790046975016594,0.4544621706008911
1691674019116202500,12.114202392578125,-0.048945505172014236,0.17840129137039185,0.46556827425956726
1691674019126247400,12.124247314453125,-0.042436737567186356,0.24985869228839874,0.4422411322593689
1691674019136292400,12.134292236328125,-0.04625391215085983,0.2952632009983063,0.39240267872810364
1691674019146338600,12.144338623046876,-0.04286184534430504,0.31840047240257263,0.33943241834640503
1691674019156383500,12.154383544921876,-0.02603062428534031,0.31422439217567444,0.2895885109901428
1691674019166428700,12.1644287109375,-0.007728582713752985,0.27240341901779175,0.24286040663719177
1691674019176474600,12.174474609375,-0.0022357101552188396,0.2088192254304886,0.20020996034145355
1691674019186519300,12.184519287109374,0.0035878242924809456,0.13519693911075592,0.16217230260372162
1691674019196564500,12.194564453125,0.0036094868555665016,0.06996462494134903,0.120535708963871
1691674019206609400,12.204609375,-0.001364764990285039,0.01237509772181511,0.09473686665296555
1691674019216655600,12.214655517578125,-0.005727675277739763,-0.009238743223249912,0.08143559098243713
1691674019226700500,12.224700439453125,-0.009737863205373287,0.003230709582567215,0.09488295763731003
1691674019236745500,12.234745361328125,-0.013862739317119122,0.022417927160859108,0.13919484615325928
1691674019246791700,12.244791748046875,-0.015309634618461132,0.05173640325665474,0.1977769285440445
1691674019256836400,12.25483642578125,-0.017713936045765877,0.09229046106338501,0.24931086599826813
1691674019266881500,12.264881591796875,-0.024258654564619064,0.14128676056861877,0.2757784128189087
1691674019276927500,12.274927490234376,-0.024148011580109596,0.18224501609802246,0.27281177043914795
1691674019286972400,12.284972412109376,-0.019527427852153778,0.21897932887077332,0.2460203766822815
1691674019297017600,12.295017578125,-0.016667528077960014,0.2354438155889511,0.21256394684314728
1691674019307062300,12.305062255859376,-0.013521535322070122,0.23914854228496552,0.17752766609191895
1691674019317108500,12.3151083984375,-0.006879519205540419,0.24896836280822754,0.14015693962574005
1691674019327153400,12.3251533203125,0.0038074799813330173,0.24110323190689087,0.12353799492120743
1691674019337198600,12.335198486328125,0.006939503829926252,0.19851167500019073,0.1142815351486206
1691674019347244500,12.34524462890625,-0.02109825611114502,0.13243599236011505,0.10144883394241333
1691674019357289500,12.35528955078125,-0.04166323319077492,0.08657749742269516,0.0824749767780304
1691674019367334700,12.365334716796875,-0.04337218403816223,0.05846303701400757,0.0649883970618248
1691674019377380600,12.375380615234375,-0.02688351273536682,0.025024645030498505,0.05726607143878937
1691674019387425500,12.385425537109375,-0.010287492536008358,-0.023725582286715508,0.05379117652773857
1691674019397470500,12.395470458984375,-0.019280625507235527,-0.06561905890703201,0.04440085589885712
1691674019407516400,12.405516357421876,-0.03042195923626423,-0.07165458053350449,0.03393436595797539
1691674019417561300,12.415561279296876,-0.03504053130745888,-0.05816449597477913,0.020416315644979477
1691674019427606300,12.425606201171876,-0.025414271280169487,-0.045692380517721176,0.025571929290890694
1691674019437651500,12.4356513671875,-0.015552102588117123,-0.020240209996700287,0.04263969138264656
1691674019447697400,12.445697509765624,-0.00939620565623045,0.020823601633310318,0.06610693037509918
1691674019457742300,12.455742431640624,-0.007079401984810829,0.07225365936756134,0.07053135335445404
1691674019467787300,12.465787353515625,0.008555484004318714,0.1247972920536995,0.05393160507082939
1691674019477833200,12.475833251953125,0.027414832264184952,0.15979182720184326,0.02955322526395321
1691674019487878400,12.48587841796875,0.03101382590830326,0.14645817875862122,0.012950279749929905
1691674019497923300,12.49592333984375,0.007530627306550741,0.09427832812070847,0.0022653627675026655
1691674019507969300,12.50596923828125,-0.023605452850461006,0.051211558282375336,-0.0045816246420145035
1691674019518014500,12.516014404296875,-0.04152128845453262,0.02055586688220501,-0.0019802567549049854
1691674019528059100,12.52605908203125,-0.04362012445926666,-0.012210868299007416,0.006181266624480486
1691674019538105300,12.536105224609376,-0.0328441746532917,-0.040185268968343735,0.018518805503845215
1691674019548150300,12.546150390625,-0.02658175118267536,-0.04598084092140198,0.028859592974185944
1691674019558195500,12.556195556640626,-0.02969317138195038,-0.03716680407524109,0.03666532412171364
1691674019568240400,12.566240478515626,-0.03149666637182236,-0.027165034785866737,0.027863578870892525
1691674019578286300,12.576286376953124,-0.02176833152770996,-0.014235691167414188,0.02750745788216591
1691674019588331300,12.586331298828124,-0.007462363690137863,-0.009764776565134525,0.034634340554475784
1691674019598376200,12.596376220703124,0.007987020537257195,-0.013408091850578785,0.048455461859703064
1691674019608422400,12.60642236328125,0.010060025379061699,-0.03025924228131771,0.04744585603475571
1691674019618467300,12.61646728515625,0.0007963405805639923,-0.04520876333117485,0.020774057134985924
